Time (s),Accel_X (m/s^2),Accel_Y (m/s^2),Accel_Z (m/s^2)
6.017022500E-2,2.551347256E0,9.229415894E0,1.555633783E0
7.005730900E-2,2.587239504E0,9.255737305E0,1.380957723E0
7.994439200E-2,2.500798702E0,9.468997002E0,1.225125194E0
8.983147500E-2,2.362015009E0,9.445069313E0,1.584347725E0
9.971855900E-2,2.292623281E0,9.267701149E0,1.414457321E0
1.096056940E-1,2.271087885E0,9.186345100E0,1.225125194E0
1.194927770E-1,2.285444736E0,9.145667076E0,1.318445325E0
1.293798610E-1,2.462513685E0,9.045168877E0,1.299302697E0
1.392669440E-1,2.754737139E0,8.973383904E0,1.222732425E0
1.491540270E-1,3.094517946E0,9.081061363E0,1.060020447E0
1.590411630E-1,2.986840963E0,9.229415894E0,9.092726111E-1
1.689282460E-1,2.654238462E0,9.270093918E0,1.098305583E0
1.788153290E-1,2.316551447E0,9.171988487E0,1.265803218E0
1.887024130E-1,2.424228430E0,9.174381256E0,1.272981644E0
1.985894960E-1,2.635095835E0,9.262915611E0,1.129412293E0
2.084766320E-1,2.747558594E0,9.299106598E0,1.074377418E0
2.183637150E-1,2.661417007E0,9.126524925E0,1.007378340E0
2.282507980E-1,2.702095032E0,8.997312546E0,1.016949654E0
2.381378820E-1,2.781058073E0,9.054739952E0,9.954141974E-1
2.480249650E-1,2.783450842E0,9.150452614E0,1.088734269E0
2.579120480E-1,2.704487801E0,9.258130074E0,1.234696507E0
2.677991840E-1,2.340479612E0,9.296713829E0,1.287338614E0
2.776862670E-1,2.074876308E0,9.231808662E0,1.361815214E0
2.875733500E-1,2.316551447E0,9.342177391E0,1.366600871E0
2.974604340E-1,2.572882652E0,9.490532875E0,1.253839016E0
3.073475170E-1,2.907877684E0,9.466604233E0,1.136590719E0
3.172346000E-1,3.302992582E0,9.270093918E0,9.284151793E-1
3.271217360E-1,3.520739317E0,9.045168877E0,6.816553473E-1
3.370088190E-1,3.719642878E0,9.109774590E0,5.763711333E-1
3.468959020E-1,3.642773390E0,9.390034676E0,5.715855360E-1
3.567830380E-1,3.116352320E0,9.500103951E0,4.016951025E-1
3.666701210E-1,2.800200701E0,9.373284340E0,6.314060688E-1
3.765572040E-1,2.900699139E0,9.272486687E0,7.968099117E-1
3.864442880E-1,2.982055187E0,9.179166794E0,9.212366939E-1
3.963313710E-1,2.929413080E0,9.128917694E0,9.978070259E-1
4.062185070E-1,2.709273338E0,9.234201431E0,1.014556766E0
4.161055900E-1,2.362015009E0,9.052347183E0,1.237089276E0
4.259926730E-1,2.299801588E0,8.987740517E0,1.304088354E0
4.358797570E-1,2.414657116E0,9.155238152E0,1.093519926E0
4.457668400E-1,2.362015009E0,9.231808662E0,1.256231904E0
4.556539750E-1,2.388336182E0,9.157630920E0,1.337587833E0
4.655410590E-1,2.381157637E0,9.128917694E0,1.016949654E0
4.754281420E-1,1.952543259E0,9.128917694E0,1.074377418E0
4.853152250E-1,1.392323732E0,9.236594200E0,9.140582681E-1
4.952023610E-1,1.392323732E0,9.452247620E0,1.170090318E0
5.050894440E-1,1.641476393E0,9.488140106E0,7.319046259E-1
5.149765270E-1,1.935793519E0,9.320642471E0,8.350951076E-1
5.248636110E-1,2.168196440E0,9.176774025E0,6.146563292E-1
5.347507460E-1,2.213660002E0,9.145667076E0,4.064807594E-1
5.446378290E-1,2.158625126E0,9.162417412E0,3.705884218E-1
5.545249130E-1,2.117947102E0,9.363713264E0,3.442673683E-1
5.644119960E-1,2.285444736E0,9.638887405E0,5.237290859E-1
5.742990790E-1,2.460120678E0,9.646066666E0,6.625127792E-1
5.841862150E-1,2.592025042E0,9.502496719E0,5.285146832E-1
5.940732980E-1,2.493620396E0,9.411569595E0,5.333003402E-1
6.039603820E-1,2.062912226E0,9.296713829E0,8.303094506E-1
6.138475170E-1,1.725225091E0,9.279664993E0,9.523434043E-1
6.237346000E-1,1.706082582E0,9.466604233E0,9.619147182E-1
6.336216840E-1,1.782652855E0,9.619745255E0,9.499505758E-1
6.435087670E-1,1.672582984E0,9.648459435E0,1.143769264E0
6.533959020E-1,1.382752419E0,9.591031075E0,1.419242978E0
6.632829860E-1,1.105184913E0,9.703494072E0,1.732702732E0
6.731700690E-1,9.089735150E-1,9.801599503E0,1.931606054E0
6.830571520E-1,9.257232547E-1,9.713065147E0,1.883450508E0
6.929442880E-1,1.222433209E0,9.605388641E0,1.785344839E0
7.028313710E-1,1.619940877E0,9.734601021E0,1.428814173E0
7.127184540E-1,1.792224169E0,1.003160954E1,1.069591761E0
7.226055380E-1,1.986341953E0,1.030917740E1,9.188438654E-1
7.324926730E-1,1.050150037E0,1.078564835E1,7.055835724E-1
7.423797570E-1,1.857428551E-1,1.119751263E1,1.024128079E0
7.522668400E-1,-8.581260443E-1,1.107787132E1,1.438385487E0
7.621539230E-1,-9.370891452E-1,1.075693417E1,2.228316069E0
7.720410590E-1,-4.438686073E-1,1.029242706E1,2.805285454E0
7.819281420E-1,5.904290080E-1,9.888040543E0,2.702394009E0
7.918152250E-1,1.610369682E0,9.550353050E0,2.912962437E0
8.017023610E-1,2.292623281E0,9.423533440E0,3.078366280E0
8.115894440E-1,2.670988321E0,9.437891006E0,3.233899832E0
8.214765270E-1,2.919841766E0,9.629316330E0,3.253042459E0
8.313636110E-1,2.759522676E0,9.909575462E0,3.343969584E0
8.412507460E-1,2.512762785E0,1.026132107E1,2.953640461E0
8.511378290E-1,2.388336182E0,1.054636574E1,2.479861498E0
8.610249130E-1,2.405085802E0,1.089093208E1,1.926820397E0
8.709120480E-1,2.335694075E0,1.115922737E1,1.479063511E0
8.807991320E-1,2.311765671E0,1.111137104E1,1.124626637E0
8.906862150E-1,2.484049082E0,1.065643597E1,7.007979155E-1
9.005733500E-1,2.984447956E0,9.957432747E0,2.365903407E-1
9.104604340E-1,3.343670607E0,9.301499367E0,-6.041877344E-2
9.203475170E-1,3.513561010E0,9.078668594E0,-2.398804724E-1
9.302346000E-1,3.185744286E0,9.071489334E0,-7.331010103E-1
9.401217360E-1,2.781058073E0,9.200701714E0,-5.105685592E-1
9.500088190E-1,2.412264347E0,9.332606316E0,-2.213360928E-2
9.598959020E-1,2.216052771E0,9.270093918E0,-1.226321608E-1
9.697830380E-1,2.338086843E0,9.011669159E0,-5.802594870E-2
9.796701210E-1,2.424228430E0,8.734101295E0,2.796611488E-1
9.895572040E-1,2.486441851E0,8.291130066E0,4.486542568E-2
9.994443400E-1,3.116352320E0,7.898408413E0,-7.043871880E-1
1.009331423E0,3.812962770E0,7.881658554E0,-5.344967842E-1
1.019218507E0,4.126422882E0,7.965407372E0,-6.062814593E-1
1.029105642E0,4.473680973E0,8.044370651E0,-7.091727853E-1
1.038992725E0,4.581357956E0,8.269595146E0,-3.116651475E-1
1.048879809E0,3.982853174E0,8.288737297E0,2.533400953E-1
1.058766944E0,3.101995468E0,8.169096947E0,7.151548862E-1
1.068654027E0,2.376372099E0,7.915158272E0,1.083948612E0
1.078541111E0,1.911865234E0,7.781160355E0,1.239482164E0
1.088428246E0,1.837687731E0,7.998907089E0,1.050449133E0
1.098315329E0,1.976471543E0,8.315058708E0,9.284151793E-1
1.108202413E0,2.113161564E0,8.583054543E0,1.088734269E0
1.118089548E0,2.024626970E0,8.755637169E0,1.636989832E0
1.127976632E0,1.622333765E0,8.880064011E0,2.020140409E0
1.137863715E0,1.028614640E0,8.956634521E0,1.953141451E0
1.147750850E0,8.392825127E-1,9.160024643E0,2.292922258E0
1.157637934E0,5.736792088E-1,9.205488205E0,2.379063845E0
1.167525017E0,3.320041299E-1,8.925527573E0,2.065604210E0
1.177412152E0,2.790629268E-1,8.484949112E0,2.034497499E0
1.187299236E0,4.564309120E-1,7.979764462E0,1.972284079E0
1.197186319E0,6.765705943E-1,7.702197075E0,1.873879194E0
1.207073454E0,9.999007583E-1,7.783553123E0,2.465504646E0
1.216960538E0,1.129113197E0,7.991728306E0,2.649751902E0
1.226847621E0,5.976074338E-1,7.989335537E0,2.747857809E0
1.236734757E0,-7.381857634E-1,7.800302505E0,2.965604544E0
1.246621840E0,-2.617748022E0,7.855337620E0,3.418147087E0
1.256508923E0,-3.601497173E0,8.063512802E0,4.299304008E0
1.266396059E0,-3.115754128E0,8.178668022E0,3.846761465E0
1.276283142E0,-1.523629785E0,8.398807526E0,3.176471949E0
1.286170277E0,2.303091809E-2,8.669196129E0,2.747857809E0
1.296057361E0,9.329017401E-1,8.906385422E0,2.180459738E0
1.305944444E0,1.584048629E0,9.186345100E0,2.324028969E0
1.315831579E0,1.610369682E0,9.289535522E0,1.974676847E0
1.325718663E0,7.052844763E-1,9.200701714E0,1.998605132E0
1.335605746E0,-5.180460811E-1,8.774779320E0,2.458027124E0
1.345492882E0,-1.573879123E0,8.238488197E0,2.513360977E0
1.355379965E0,-2.002493382E0,7.972586155E0,2.616252422E0
1.365267100E0,-1.959422588E0,7.958229065E0,2.479861498E0
1.375154184E0,-1.782054663E0,8.113762856E0,2.264208317E0
1.385041267E0,-1.798804402E0,8.417949677E0,2.577967405E0
1.394928350E0,-1.872981906E0,8.621339798E0,2.745464802E0
1.404815486E0,-1.798804402E0,8.597412109E0,2.525325298E0
1.414702569E0,-1.329512119E0,8.341380119E0,2.240280151E0
1.424589652E0,-6.496513486E-1,8.020442009E0,1.926820397E0
1.434476788E0,-1.525424421E-2,7.723732471E0,1.277767301E0
1.444363871E0,5.688936114E-1,7.711768150E0,8.781659007E-1
1.454251007E0,3.894318938E-1,8.073084831E0,2.022533417E0
1.464138090E0,-1.389631748E0,9.014061928E0,4.220340729E0
1.474025225E0,-4.370191574E0,1.079282665E1,6.633502483E0
1.483912309E0,-6.893423080E0,1.241845036E1,9.089735031E0
1.493799392E0,-7.503891945E0,1.318923855E1,9.503992081E0
1.503686527E0,-6.673283100E0,1.210259819E1,8.216055870E0
1.513573611E0,-5.054837704E0,1.041476059E1,6.975975513E0
1.523460694E0,-1.961815476E0,9.722636223E0,4.732704163E0
1.533347829E0,1.172183990E0,1.012971592E1,4.275375843E0
1.543234913E0,2.637488842E0,1.061097240E1,1.787737608E0
1.553122048E0,2.960519791E0,1.083589745E1,3.825525343E-1
1.563009132E0,3.053839922E0,1.109940720E1,-1.393819153E-1
1.572896215E0,2.548954248E0,1.122383404E1,1.645065546E-1
1.582783350E0,1.517049551E0,1.092443180E1,1.450349569E0
1.592670434E0,5.976074338E-1,1.013210869E1,2.666501760E0
1.602557569E0,1.546361595E-1,9.521639824E0,2.295315027E0
1.612444652E0,3.559323549E-1,9.480961800E0,1.402493119E0
1.622331736E0,6.789634228E-1,9.612566948E0,7.247261405E-1
1.632218871E0,7.770691514E-1,9.753743172E0,2.676970363E-1
1.642105954E0,7.698906660E-1,9.760921478E0,8.063812256E-1
1.651993090E0,2.985046208E-1,9.535996437E0,1.376172066E0
1.661880173E0,-4.175475538E-1,9.195916176E0,1.684846282E0
1.671767257E0,-9.203394055E-1,8.808279037E0,1.780559182E0
1.681654392E0,-1.001695395E0,8.595019341E0,1.859522343E0
1.691541475E0,-7.357929349E-1,8.705088615E0,1.787737608E0
1.701428611E0,-3.696911037E-1,8.978169441E0,1.696810365E0
1.711315694E0,-4.079762697E-1,9.296713829E0,1.873879194E0
1.721202777E0,-8.195417523E-1,9.349356651E0,2.046461582E0
1.731089913E0,-1.238584876E0,9.229415894E0,1.991426587E0
1.740976996E0,-1.296012521E0,9.195916176E0,2.084746838E0
1.750864132E0,-1.008873820E0,9.320642471E0,1.938784599E0
1.760751215E0,-3.672982752E-1,9.674779892E0,1.491027594E0
1.770638298E0,1.354935765E-1,9.995717049E0,1.143769264E0
1.780525434E0,2.240280211E-1,9.993324280E0,1.304088354E0
1.790412517E0,1.833500415E-1,9.638887405E0,1.414457321E0
1.800299600E0,3.296113312E-1,9.299106598E0,1.402493119E0
1.810186736E0,5.665007830E-1,9.260522842E0,1.134197950E0
1.820073819E0,9.783653617E-1,9.299106598E0,1.134197950E0
1.829960954E0,1.313360572E0,9.392427444E0,7.342974544E-1
1.839848038E0,1.462014675E0,9.440283775E0,5.356931686E-1
1.849735173E0,1.401894927E0,9.449854851E0,8.063812256E-1
1.859622257E0,1.270289779E0,9.399605751E0,9.619147182E-1
1.869509340E0,1.105184913E0,9.255737305E0,1.158126116E0
1.879396475E0,1.121934772E0,9.095417976E0,1.031306505E0
1.889283559E0,1.416251898E0,8.892027855E0,7.749754190E-1
1.899170694E0,1.842473388E0,8.738887787E0,6.720840335E-1
1.909057777E0,2.405085802E0,8.611768723E0,5.165506005E-1
1.918944913E0,2.883949518E0,8.638090134E0,2.413759828E-1
1.928831996E0,3.152244806E0,8.738887787E0,1.597209126E-1
1.938719079E0,3.195315599E0,8.726922989E0,2.700898647E-1
1.948606215E0,3.039483070E0,8.748458862E0,3.179463148E-1
1.958493298E0,2.788236618E0,8.743673325E0,3.323032558E-1
1.968380434E0,2.527119875E0,8.676374435E0,9.272187948E-2
1.978267517E0,2.304587364E0,8.678768158E0,-9.870393574E-2
1.988154600E0,2.201695919E0,8.858528137E0,-7.477571070E-2
1.998041736E0,2.299801588E0,9.002098083E0,4.965107143E-2
2.007928819E0,2.452942371E0,8.968598366E0,2.772683203E-1
2.017815954E0,2.656631231E0,8.901598930E0,4.686941206E-1
2.027703038E0,2.948555708E0,8.848957062E0,4.495515525E-1
2.037590173E0,3.300599813E0,8.880064011E0,6.314060688E-1
2.047477257E0,3.501596928E0,8.970991135E0,3.945166469E-1
2.057364392E0,3.700500250E0,9.090632439E0,3.969094455E-1
2.067251475E0,3.944568157E0,9.116953850E0,5.476573110E-1
2.077138559E0,3.951746702E0,8.949456215E0,5.500500798E-1
2.087025694E0,3.901497364E0,8.678768158E0,6.768696904E-1
2.096912777E0,3.729214191E0,8.532805443E0,8.327022791E-1
2.106799913E0,3.420240879E0,8.506484032E0,6.864410043E-1
2.116686996E0,3.096910715E0,8.573483467E0,6.553342938E-1
2.126574132E0,3.070589542E0,8.729315758E0,5.021936297E-1
2.136461215E0,3.279064417E0,8.894420624E0,6.098706722E-1
2.146348350E0,3.494418383E0,9.021240234E0,5.859424472E-1
2.156235434E0,3.714857101E0,9.303893089E0,6.385845542E-1
2.166122517E0,3.875176191E0,9.696315765E0,5.237290859E-1
2.176009652E0,3.863212109E0,9.600603104E0,4.016951025E-1
2.185896736E0,3.822534084E0,9.217452049E0,3.658027649E-1
2.195783871E0,3.882354736E0,8.925527573E0,-5.383851007E-3
2.205670954E0,4.085744858E0,8.810671806E0,-7.139584422E-1
2.215558090E0,4.483252525E0,8.762815475E0,-1.109073281E0
2.225445173E0,4.871188641E0,8.755637169E0,-1.302891970E0
2.235332309E0,4.962115765E0,8.813064575E0,-1.219143152E0
2.245219392E0,4.686642170E0,8.915956497E0,-7.666005492E-1
2.255106475E0,4.071387768E0,8.882456779E0,-1.752742529E-1
2.264993611E0,3.664607763E0,8.882456779E0,2.198405862E-1
2.274880694E0,3.894318819E0,9.088239670E0,-2.470589429E-1
2.284767829E0,4.739284515E0,9.416355133E0,-1.374676585E0
2.294654913E0,5.787939072E0,9.777671814E0,-2.282154560E0
2.304542048E0,6.455835342E0,9.983753204E0,-2.566900492E0
2.314429132E0,6.262016773E0,9.717850685E0,-2.377867460E0
2.324316267E0,5.790331841E0,9.162417412E0,-1.980359793E0
2.334203350E0,5.725725651E0,8.707481384E0,-1.827219248E0
2.344090486E0,5.902794361E0,8.599804878E0,-1.561615825E0
2.353977569E0,5.910272121E0,8.609375954E0,-1.037288666E0
2.363864652E0,5.649155140E0,8.784351349E0,7.118647546E-2
2.373751788E0,5.179862976E0,8.951848984E0,1.246660590E0
2.383638871E0,4.648356915E0,9.018847466E0,2.070389748E0
2.393526007E0,4.576572418E0,9.299106598E0,2.965604544E0
2.403413090E0,4.864010334E0,9.792028427E0,2.881855726E0
2.413300225E0,5.515157223E0,1.033549786E1,2.491825581E0
2.423187309E0,6.166304111E0,1.073779202E1,1.912463546E0
2.433074444E0,6.348158360E0,1.068514919E1,1.634596944E0
2.442961527E0,6.168696880E0,1.029960632E1,8.279166222E-1
2.452848663E0,6.393621922E0,1.011057281E1,2.748754919E-1
2.462735746E0,6.252445698E0,9.839884758E0,-7.187440991E-1
2.472622882E0,5.912664890E0,9.571888924E0,-1.259821177E0
2.482509965E0,5.529513836E0,9.133703232E0,-1.592722535E0
2.492397048E0,5.134399414E0,8.786744118E0,-2.382653236E0
2.502284184E0,4.787439823E0,8.748458862E0,-2.784946442E0
2.512171267E0,3.966103554E0,8.518448830E0,-2.263011932E0
2.522058402E0,3.451347589E0,8.264809608E0,-2.054836512E0
2.531945486E0,3.362813234E0,8.063512802E0,-1.540080428E0
2.541832621E0,3.599702597E0,7.824231148E0,-1.135394335E0
2.551719704E0,4.047459602E0,7.661519051E0,-1.180858016E0
2.561606840E0,4.447360039E0,7.555935860E0,-7.283154130E-1
2.571493923E0,4.641178608E0,7.407580853E0,-4.366901144E-2
2.581381059E0,4.806582451E0,7.457829952E0,2.437688112E-1
2.591268142E0,5.100899696E0,7.553543091E0,3.753740489E-1
2.601155277E0,5.371587753E0,7.565506935E0,4.304089844E-1
2.611042361E0,5.505585670E0,7.347760201E0,5.859424472E-1
2.620929496E0,5.486443043E0,7.014858723E0,4.399802685E-1
2.630816579E0,5.584548950E0,6.885646343E0,1.692921966E-1
2.640703663E0,5.857330799E0,7.206583500E0,2.572284266E-2
2.650590798E0,6.216553211E0,7.728518009E0,1.884347796E-1
2.660477934E0,6.041877270E0,8.063512802E0,-1.016949583E-2
2.670365017E0,5.407480240E0,8.193024635E0,-2.111666054E-1
2.680252100E0,4.804189682E0,8.283951759E0,-2.063809484E-1
2.690139236E0,4.313362122E0,8.429914474E0,-3.164508045E-1
2.700026319E0,3.314956665E0,8.561519623E0,-1.633101404E-1
2.709913454E0,2.225624084E0,8.707481384E0,2.820539773E-1
2.719800538E0,1.969292998E0,8.789136887E0,6.266204119E-1
2.729687673E0,2.342872381E0,8.848957062E0,4.040879309E-1
2.739574757E0,2.840878725E0,8.825029373E0,2.413759828E-1
2.749461892E0,3.188137054E0,8.559126854E0,2.318046987E-1
2.759348975E0,3.405884027E0,8.350951195E0,1.022931710E-1
2.769236111E0,3.633202076E0,8.228917122E0,1.166501045E-1
2.779123194E0,3.745963812E0,8.051548958E0,1.932204217E-1
2.789010329E0,3.451347589E0,7.936693668E0,4.160520434E-1
2.798897413E0,2.383550406E0,8.173882484E0,4.734797776E-1
2.808784548E0,8.464609981E-1,8.551948547E0,9.308080077E-1
2.818671632E0,-2.377867550E-1,8.798707962E0,1.675274968E0
2.828558767E0,-8.748757839E-1,8.853742599E0,2.142174482E0
2.838445850E0,-8.844470978E-1,8.705088615E0,2.319243431E0
2.848332986E0,-2.835494876E-1,8.472985268E0,2.101496458E0
2.858220069E0,7.100701332E-1,8.286344528E0,1.471885085E0
2.868107204E0,1.462014675E0,8.204988480E0,1.320838094E0
2.877994288E0,1.684547186E0,8.360522270E0,1.617847204E0
2.887881423E0,1.267896891E0,8.482556343E0,1.981855392E0
2.897768507E0,5.760720372E-1,8.580661774E0,2.326421738E0
2.907655642E0,-2.497508675E-1,8.499305725E0,2.587538481E0
2.917542725E0,-1.116550922E0,8.260024071E0,2.927319288E0
2.927429861E0,-1.786840320E0,7.946264744E0,2.932105064E0
2.937316944E0,-2.174776793E0,7.738089561E0,3.035295486E0
2.947204079E0,-2.088634968E0,7.601698399E0,2.743072033E0
2.957091163E0,-1.554736495E0,7.596613884E0,2.194816589E0
2.966978298E0,-9.442676306E-1,7.826623917E0,1.912463546E0
2.976865382E0,-7.094719410E-1,8.176275253E0,2.017747641E0
2.986752517E0,-8.099704385E-1,8.578269005E0,2.587538481E0
2.996639600E0,-1.114158034E0,8.848957062E0,2.554039001E0
3.006526736E0,-1.566700578E0,8.834600449E0,2.649751902E0
3.016413819E0,-2.119741678E0,8.520841599E0,2.810070992E0
3.026300954E0,-2.548356056E0,8.260024071E0,2.745464802E0
3.036188038E0,-2.734996319E0,8.128119469E0,2.386242390E0
3.046075173E0,-2.519642353E0,8.274380684E0,1.977069736E0
3.055962257E0,-2.002493382E0,8.563912392E0,1.692024708E0
3.065849392E0,-1.413560033E0,8.925527573E0,1.352243900E0
3.075736475E0,-1.164407372E0,9.299106598E0,2.067996979E0
3.085623611E0,-1.559522152E0,9.852148056E0,3.245863914E0
3.095510694E0,-2.349452734E0,1.035464096E1,4.031008720E0
3.105397829E0,-2.632104874E0,1.051286602E1,4.028615952E0
3.115284913E0,-2.167598248E0,1.038096237E1,4.131507397E0
3.125172048E0,-1.530808330E0,1.046261692E1,3.877868176E0
3.135059132E0,-1.229013562E0,1.057029438E1,3.851547241E0
3.144946267E0,-1.789233088E0,1.045065308E1,4.081258297E0
3.154833350E0,-2.933600664E0,1.063968563E1,4.598406792E0
3.164720486E0,-3.290430307E0,1.146550846E1,4.533800602E0
3.174607569E0,-2.292025089E0,1.194197941E1,3.102294445E0
3.184494704E0,-8.051848412E-1,1.183669567E1,2.087139606E0
3.194381788E0,1.211366430E-1,1.123579788E1,9.954141974E-1
3.204268923E0,2.216351926E-1,1.052243805E1,4.351946115E-1
3.214156007E0,-1.947159469E-1,1.001246738E1,2.868396044E-1
3.224043142E0,-6.664010882E-1,9.957432747E0,4.615156651E-1
3.233930225E0,-1.231406331E0,1.011535835E1,6.625127792E-1
3.243817361E0,-1.779661894E0,1.012253666E1,6.840481758E-1
3.253704444E0,-2.172383785E0,9.976574898E0,8.470591903E-1
3.263591579E0,-2.437987089E0,9.777671814E0,1.067198873E0
3.273478663E0,-2.600998163E0,9.370891571E0,1.146162033E0
3.283365798E0,-2.768495798E0,8.942276955E0,1.289731383E0
3.293252934E0,-2.912065268E0,8.523234367E0,1.409671664E0
3.303140017E0,-2.962314367E0,8.262416840E0,1.562812328E0
3.313027100E0,-2.938386202E0,8.279166222E0,1.708774447E0
3.322914236E0,-3.058027267E0,8.334200859E0,2.101496458E0
3.332801319E0,-3.221038342E0,8.288737297E0,2.379063845E0
3.342688454E0,-2.945564747E0,8.482556343E0,2.491825581E0
3.352575538E0,-1.899302959E0,8.963812828E0,2.257030010E0
3.362462673E0,-7.549355626E-1,9.356534958E0,1.742274046E0
3.372349809E0,2.063809521E-2,9.428318977E0,1.138983607E0
3.382236892E0,3.559323549E-1,9.306285858E0,5.237290859E-1
3.392124027E0,3.272185028E-1,9.109774590E0,3.370888829E-1
3.402011111E0,1.163510010E-1,8.954241753E0,3.897309899E-1
3.411898246E0,-7.507480681E-2,9.014061928E0,5.572285652E-1
3.421785329E0,-2.003988996E-2,9.258130074E0,7.606185079E-1
3.431672465E0,2.312064916E-1,9.447462082E0,7.654041648E-1
3.441559548E0,7.698906660E-1,9.770493507E0,1.088734269E0
3.451446684E0,1.052542806E0,1.003878784E1,1.064806104E0
3.461333767E0,1.040578723E0,1.006032372E1,9.403793216E-1
3.471220902E0,9.544371367E-1,9.825528145E0,1.349851131E0
3.481107986E0,6.885347366E-1,9.392427444E0,1.447956800E0
3.490995121E0,6.454638839E-1,9.188737869E0,1.438385487E0
3.500882204E0,8.201399446E-1,9.373284340E0,1.249053478E0
3.510769340E0,1.100399256E0,9.667601585E0,1.028913736E0
3.520656423E0,1.334895968E0,9.748957634E0,8.303094506E-1
3.530543559E0,1.505085468E0,9.796813965E0,6.912266612E-1
3.540430642E0,1.483550072E0,9.734601021E0,4.232304990E-1
3.550317777E0,1.588834286E0,9.648459435E0,9.990034252E-2
3.560204861E0,1.696511269E0,9.602995872E0,-7.956135273E-2
3.570091996E0,1.663011789E0,9.497711182E0,-4.845465720E-2
3.579979132E0,1.619940877E0,9.392427444E0,-5.324030295E-2
3.589866215E0,1.500299811E0,9.385248184E0,-6.759724021E-2
3.599753350E0,1.464407444E0,9.409176826E0,-4.127619043E-2
3.609640434E0,1.447657704E0,9.478569031E0,-1.322034448E-1
3.619527569E0,1.531406522E0,9.468997002E0,3.768695518E-2
3.629414652E0,1.756331801E0,9.449854851E0,1.286142170E-1
3.639301788E0,1.954936147E0,9.509675026E0,4.007977992E-2
3.649188871E0,2.031805515E0,9.579067230E0,2.772683203E-1
3.659076007E0,2.015055656E0,9.507282257E0,4.208376706E-1
3.668963090E0,2.005484581E0,9.358927727E0,2.868396044E-1
3.678850225E0,2.017448664E0,9.238986969E0,2.629113793E-1
3.688737309E0,1.890329838E0,9.171988487E0,5.117649436E-1
3.698624444E0,1.698904037E0,9.183952332E0,6.816553473E-1
3.708511527E0,1.512263894E0,9.219844818E0,8.303094506E-1
3.718398663E0,1.428515077E0,9.212666512E0,8.350951076E-1
3.728285798E0,1.514656782E0,9.231808662E0,9.475577474E-1
3.738172882E0,1.588834286E0,9.148059845E0,9.260223508E-1
3.748060017E0,1.617548108E0,9.100203514E0,8.183453679E-1
3.757947100E0,1.624726534E0,9.128917694E0,8.374879360E-1
3.767834236E0,1.646261930E0,9.112167358E0,9.332008362E-1
3.777721319E0,1.646261930E0,9.047561646E0,9.930213690E-1
3.787608454E0,1.722832322E0,8.994919777E0,8.973084688E-1
3.797495538E0,1.746760488E0,9.100203514E0,8.111668825E-1
3.807382673E0,1.799402595E0,9.229415894E0,8.446664214E-1
3.817269757E0,1.619940877E0,9.181559563E0,8.709874153E-1
3.827156892E0,1.349252820E0,9.085846901E0,8.709874153E-1
3.837044027E0,1.426122308E0,9.217452049E0,1.060020447E0
3.846931111E0,1.737189293E0,9.454640388E0,7.701897621E-1
3.856818246E0,1.966900229E0,9.535996437E0,5.691927075E-1
3.866705329E0,1.959721804E0,9.483354568E0,3.825525343E-1
3.876592465E0,1.835294962E0,9.332606316E0,2.581257522E-1
3.886479548E0,1.667797327E0,9.054739952E0,1.118644550E-1
3.896366684E0,1.533799291E0,8.858528137E0,4.160520434E-1
3.906253767E0,1.658226132E0,8.875278473E0,1.980060786E-1
3.916140902E0,2.043769598E0,8.932705879E0,3.529413417E-2
3.926027986E0,2.570489645E0,8.949456215E0,-1.322034448E-1
3.935915121E0,2.972483873E0,8.913563728E0,-3.885345757E-1
3.945802257E0,3.161816120E0,8.942276955E0,-4.076771438E-1
3.955689340E0,3.168994427E0,9.037990570E0,-1.465603858E-1
3.965576475E0,2.962912560E0,8.961420059E0,-2.303091735E-1
3.975463559E0,2.647060156E0,8.791529655E0,-1.010967568E-1
3.985350694E0,2.440978289E0,8.702695847E0,1.238285750E-1
3.995237777E0,2.469691992E0,8.736495018E0,2.796611488E-1
4.005124913E0,2.709273338E0,8.846564293E0,-1.082752272E-1
4.015012048E0,3.346063375E0,9.116953850E0,-7.570292354E-1
4.024899132E0,4.181457520E0,9.390034676E0,-1.592722535E0
4.034786267E0,4.986044407E0,9.399605751E0,-1.822433591E0
4.044673350E0,5.457729340E0,9.215059280E0,-1.865504384E0
4.054560486E0,5.507978439E0,8.911170959E0,-1.547258973E0
4.064447569E0,5.436193943E0,8.461020470E0,-1.113858938E0
4.074334704E0,5.493621826E0,8.207381248E0,-6.541379094E-1
4.084221788E0,5.555835247E0,8.120941162E0,-6.302096844E-1
4.094108923E0,5.658726215E0,8.085048676E0,-7.713862062E-1
4.103996059E0,5.668297768E0,8.257631302E0,-3.140579760E-1
4.113883142E0,5.744868279E0,8.578269005E0,2.820539773E-1
4.123770277E0,6.034698486E0,8.982954979E0,6.672984362E-1
4.133657361E0,6.678667068E0,9.538389206E0,1.201196909E0
4.143544496E0,7.303493023E0,1.007468033E1,1.670489311E0
4.153431579E0,7.279564857E0,1.010818005E1,1.763809443E0
4.163318715E0,6.874878407E0,9.734601021E0,2.245065928E0
4.173205850E0,6.405586243E0,9.308678627E0,2.532503605E0
4.183092934E0,6.384050846E0,9.219844818E0,2.458027124E0
4.192980069E0,6.642774582E0,9.445069313E0,2.324028969E0
4.202867152E0,6.623631954E0,9.564710617E0,2.065604210E0
4.212754288E0,6.235695839E0,9.435498238E0,1.861915112E0
4.222641423E0,5.912664890E0,9.143274307E0,1.629811287E0
4.232528507E0,5.787939072E0,8.980562210E0,1.565205097E0
4.242415590E0,5.967699528E0,8.870492935E0,1.201196909E0
4.252302725E0,6.250052929E0,8.709874153E0,6.744768620E-1
4.262189861E0,6.518348217E0,8.530412674E0,1.692921966E-1
4.272076944E0,6.513562202E0,8.525627136E0,-4.651049078E-1
4.281964079E0,6.218945980E0,8.535198212E0,-8.359923959E-1
4.291851163E0,5.790331841E0,8.449056625E0,-5.847460628E-1
4.301738298E0,5.325825214E0,8.348558426E0,-3.693920076E-1
4.311625434E0,4.933402061E0,8.123333931E0,-9.631111473E-2
4.321512517E0,4.645964146E0,7.874480247E0,2.389831543E-1
4.331399652E0,4.502394676E0,7.738089561E0,1.788634956E-1
4.341286736E0,4.729712963E0,7.819445133E0,2.509472668E-1
4.351173871E0,5.155934811E0,7.960621834E0,4.328017831E-1
4.361060954E0,5.383552074E0,8.015656471E0,5.763711333E-1
4.370948090E0,5.239683151E0,7.972586155E0,3.993022740E-1
4.380835225E0,4.885545731E0,8.018049240E0,2.003988922E-1
4.390722309E0,4.363611221E0,8.147261620E0,2.868396044E-1
4.400609444E0,4.028316975E0,8.264809608E0,5.333003402E-1
4.410496527E0,3.930211306E0,8.408378601E0,4.782654345E-1
4.420383663E0,3.848855257E0,8.573483467E0,2.174477577E-1
4.430270798E0,3.652344704E0,8.595019341E0,2.222333997E-1
4.440157882E0,3.200101137E0,8.561519623E0,2.222333997E-1
4.450045017E0,2.962912560E0,8.494520187E0,4.519443810E-1
4.459932100E0,3.154637575E0,8.537590981E0,5.117649436E-1
4.469819236E0,3.683750391E0,8.712266922E0,3.705884218E-1
4.479706371E0,4.171886444E0,8.769993782E0,1.812563092E-1
4.489593454E0,4.456931114E0,8.652446747E0,-5.383851007E-3
4.499480590E0,4.521537304E0,8.451449394E0,-1.974078640E-2
4.509367673E0,4.251148701E0,8.370093346E0,1.788634956E-1
4.519254809E0,3.561417341E0,8.312665939E0,3.394817114E-1
4.529141944E0,3.133102179E0,8.353343964E0,3.299104273E-1
4.539029027E0,2.898306370E0,8.508877754E0,2.413759828E-1
4.548916163E0,2.735594511E0,8.705088615E0,2.772683203E-1
4.558803246E0,2.488834620E0,8.736495018E0,2.075773627E-1
4.568690382E0,2.580060959E0,8.609375954E0,5.922235921E-2
4.578577517E0,2.960519791E0,8.420342445E0,-1.106680483E-1
4.588464600E0,3.408276796E0,8.413164139E0,-4.004986882E-1
4.598351736E0,3.820141315E0,8.556734085E0,-3.717848063E-1
4.608238819E0,3.851248026E0,8.523234367E0,-1.016949583E-2
4.618125954E0,3.652344704E0,8.606983185E0,3.011965454E-1
4.628013038E0,3.492025614E0,8.791529655E0,4.136592150E-1
4.637900173E0,2.551347256E0,8.736495018E0,3.801597059E-1
4.647787309E0,7.603194118E-1,8.683553696E0,6.457630396E-1
4.657674392E0,-3.242274821E-1,8.700303078E0,1.536491275E0
4.667561527E0,-5.802595019E-1,8.755637169E0,1.672882080E0
4.677448663E0,-3.200400248E-2,8.944669724E0,1.641775489E0
4.687335746E0,1.031007409E0,9.274879456E0,1.574776411E0
4.697222882E0,1.892722726E0,9.315856934E0,1.409671664E0
4.707109965E0,2.424228430E0,9.198308945E0,1.491027594E0
4.716997100E0,2.517548561E0,8.997312546E0,1.548455358E0
4.726884236E0,2.172981977E0,8.877671242E0,1.811665893E0
4.736771319E0,1.588834286E0,8.851349831E0,1.926820397E0
4.746658454E0,9.927222729E-1,9.006883621E0,1.996212244E0
4.756545538E0,-5.682953633E-3,9.085846901E0,1.869093537E0
4.766432673E0,-1.774876237E0,8.949456215E0,1.981855392E0
4.776319809E0,-2.971885681E0,8.796315193E0,2.422134638E0
4.786206892E0,-3.333501101E0,8.568697929E0,2.788535595E0
4.796094027E0,-3.014956474E0,8.518448830E0,2.683251381E0
4.805981163E0,-2.280060768E0,8.559126854E0,2.568396091E0
4.815868246E0,-1.564307809E0,8.549555779E0,2.357528448E0
4.825755382E0,-1.209870934E0,8.484949112E0,2.168495417E0
4.835642465E0,-1.178764224E0,8.408378601E0,2.209173441E0
4.845529600E0,-1.377368569E0,8.453842163E0,2.335993052E0
4.855416736E0,-1.760519266E0,8.444271088E0,2.352742910E0
4.865303819E0,-2.416451693E0,8.377271652E0,2.218744755E0
4.875190954E0,-2.907279491E0,8.298309326E0,2.472683191E0
4.885078038E0,-2.926422119E0,8.216953278E0,2.709572554E0
4.894965173E0,-2.629712105E0,8.427521706E0,2.465504646E0
4.904852309E0,-1.944766641E0,8.903991699E0,2.242672920E0
4.914739392E0,-1.614557028E0,9.229415894E0,2.242672920E0
4.924626527E0,-1.609771490E0,9.224630356E0,2.170888424E0
4.934513663E0,-1.741376638E0,8.927920341E0,2.127817631E0
4.944400746E0,-1.923231244E0,8.714659691E0,2.118246317E0
4.954287882E0,-1.834696770E0,8.746066093E0,2.053640127E0
4.964174965E0,-1.435095429E0,8.894420624E0,2.154138565E0
4.974062100E0,-1.140479088E0,9.071489334E0,1.792523265E0
4.983949236E0,-7.142575383E-1,9.198308945E0,1.924427629E0
4.993836319E0,-4.869394004E-1,9.574281693E0,2.402992249E0
5.003723454E0,-1.011266708E0,1.028764153E1,2.695215702E0
5.013610590E0,-2.342274189E0,1.097498035E1,3.482753277E0
5.023497673E0,-4.032504559E0,1.058225822E1,4.828416824E0
5.033384809E0,-5.851946831E0,9.337391853E0,5.465207100E0
5.043271892E0,-6.685247421E0,8.350951195E0,4.914558411E0
5.053159027E0,-5.787340641E0,8.499305725E0,4.275375843E0
5.063046163E0,-4.159324169E0,9.404391289E0,3.353540897E0
5.072933246E0,-2.756531715E0,1.010818005E1,2.599502802E0
5.082820382E0,-2.000100613E0,1.027328491E1,2.127817631E0
5.092707517E0,-2.220240355E0,1.026132107E1,1.873879194E0
5.102594600E0,-2.715853691E0,1.024696350E1,1.953141451E0
5.112481736E0,-2.950350285E0,1.010339451E1,2.022533417E0
5.122368819E0,-2.615355253E0,9.873683929E0,1.744666815E0
5.132255954E0,-1.877767563E0,9.653244972E0,1.306481123E0
5.142143090E0,-1.894517303E0,9.617352486E0,5.667998791E-1
5.152030173E0,-1.880160451E0,9.574281693E0,5.261218548E-1
5.161917309E0,-2.150848389E0,9.533603668E0,5.021936297E-1
5.171804444E0,-2.723032236E0,9.330213547E0,4.998008311E-1
5.181691527E0,-3.048455954E0,8.935098648E0,1.081555843E0
5.191578663E0,-2.991028309E0,8.499305725E0,1.440778375E0
5.201465798E0,-2.493022203E0,8.202595711E0,1.703988791E0
5.211352882E0,-1.691127419E0,8.132905006E0,1.804487348E0
5.221240017E0,-9.729815125E-1,8.252845764E0,1.948355794E0
5.231127100E0,-6.544370055E-1,8.477770805E0,1.680060625E0
5.241014236E0,-6.329016089E-1,8.683553696E0,2.094317913E0
5.250901371E0,-6.496513486E-1,8.889635086E0,2.194816589E0
5.260788454E0,-3.505485058E-1,9.399605751E0,2.350350142E0
5.270675590E0,7.328019291E-2,1.003639507E1,2.245065928E0
5.280562725E0,7.052844763E-1,1.052961636E1,1.601097465E0
5.290449809E0,1.296610713E0,1.047218800E1,1.002592683E0
5.300336944E0,1.478764415E0,1.012014389E1,6.026921868E-1
5.310224079E0,1.090828061E0,9.777671814E0,4.280161560E-1
5.320111163E0,6.287141442E-1,9.521639824E0,2.198405862E-1
5.329998298E0,4.779663086E-1,9.562317848E0,7.118647546E-2
5.339885382E0,5.617151260E-1,9.765707016E0,-2.213360928E-2
5.349772517E0,5.617151260E-1,9.911968231E0,-7.956135273E-2
5.359659652E0,6.813562512E-1,1.004357433E1,2.075773627E-1
5.369546736E0,7.555337548E-1,9.993324280E0,4.663013220E-1
5.379433871E0,8.754739761E-1,9.715457916E0,6.744768620E-1
5.389321007E0,1.059721351E0,9.437891006E0,8.518448472E-1
5.399208090E0,1.318146229E0,9.109774590E0,8.087740541E-1
5.409095225E0,1.674975872E0,8.908778191E0,6.601199508E-1
5.418982361E0,1.849651933E0,8.961420059E0,3.873381615E-1
5.428869444E0,1.919043779E0,8.982954979E0,-6.759724021E-2
5.438756579E0,1.907079697E0,9.121739388E0,1.884347796E-1
5.448643715E0,1.713261008E0,9.418747902E0,5.452644825E-1
5.458530798E0,1.397109270E0,9.557532310E0,8.685946465E-1
5.468417934E0,1.098006487E0,9.533603668E0,1.227517962E0
5.478305017E0,1.023828983E0,9.327820778E0,1.136590719E0
5.488192152E0,1.310967684E0,9.248558998E0,9.020941257E-1
5.498079288E0,1.655833244E0,9.461818695E0,7.007979155E-1
5.507966371E0,1.572084427E0,9.696315765E0,6.314060688E-1
5.517853507E0,1.102792144E0,9.827920914E0,7.247261405E-1
5.527740642E0,4.755735099E-1,9.799206734E0,4.710869491E-1
5.537627725E0,3.128615618E-1,9.713065147E0,3.346960545E-1
5.547514861E0,8.105686903E-1,9.562317848E0,3.203391433E-1
5.557401996E0,1.275075316E0,9.449854851E0,2.557329237E-1
5.567289079E0,1.603191137E0,9.370891571E0,-3.308077157E-1
5.577176215E0,1.823330879E0,9.375677109E0,-5.703890920E-1
5.587063350E0,1.615155339E0,9.454640388E0,-8.742775917E-1
5.596950434E0,1.045364380E0,9.480961800E0,-1.003789067E0
5.606837569E0,7.339983582E-1,9.555138588E0,-1.104287624E0
5.616724704E0,6.933203340E-1,9.602995872E0,-1.097109199E0
5.626611788E0,9.209375978E-1,9.638887405E0,-1.027717352E0
5.636498923E0,1.162612677E0,9.535996437E0,-9.631111026E-1
5.646386059E0,1.394716501E0,9.399605751E0,-1.051645517E0
5.656273142E0,1.732403636E0,9.378069878E0,-6.182455420E-1
5.666160277E0,1.787438512E0,9.253344536E0,-3.140579760E-1
5.676047361E0,1.706082582E0,9.057132721E0,1.453639716E-1
5.685934496E0,1.607976794E0,8.753244400E0,4.830510616E-1
5.695821632E0,1.694118381E0,8.690732002E0,4.878367186E-1
5.705708715E0,1.818545222E0,8.887242317E0,4.519443810E-1
5.715595850E0,1.842473388E0,9.162417412E0,2.724826932E-1
5.725482986E0,1.782652855E0,9.320642471E0,2.724826932E-1
5.735370069E0,1.746760488E0,9.287142754E0,3.275175989E-1
5.745257204E0,1.593619823E0,9.100203514E0,3.705884218E-1
5.755144340E0,1.382752419E0,8.884849548E0,1.501496136E-1
5.765031423E0,1.342074394E0,8.762815475E0,2.700898647E-1
5.774918559E0,1.765903115E0,8.908778191E0,3.107678294E-1
5.784805694E0,1.954936147E0,8.942276955E0,-4.127619043E-2
5.794692777E0,2.589632273E0,8.966205597E0,1.262213886E-1
5.804579913E0,3.041875839E0,8.889635086E0,9.990034252E-2
5.814467048E0,3.377170086E0,8.784351349E0,4.007977992E-2
5.824354132E0,3.410669565E0,8.506484032E0,-1.800599098E-1
5.834241267E0,3.757927895E0,8.549555779E0,-4.196412563E-1
5.844128402E0,4.188635826E0,8.832207680E0,-1.274178028E-1
5.854015486E0,4.483252525E0,9.231808662E0,-4.627120793E-1
5.863902621E0,4.995615482E0,9.653244972E0,-2.614158690E-1
5.873789757E0,5.275575638E0,9.792028427E0,-1.585244983E-1
5.883676840E0,5.165505886E0,9.823135376E0,-6.041877344E-2
5.893563975E0,4.567001343E0,9.507282257E0,-1.226321608E-1
5.903451111E0,4.183850288E0,9.066703796E0,3.768695518E-2
5.913338194E0,4.083351612E0,8.750851631E0,1.645065546E-1
5.923225329E0,4.375575542E0,8.700303078E0,1.238285750E-1
5.933112465E0,4.820939541E0,8.841778755E0,8.973085321E-3
5.942999548E0,4.990829945E0,8.920742035E0,1.094716340E-1
5.952886684E0,4.708177567E0,8.724530220E0,1.740778536E-1
5.962773819E0,4.229613304E0,8.484949112E0,3.050848842E-2
5.972660902E0,4.023531437E0,8.472985268E0,1.166501045E-1
5.982548038E0,3.879961967E0,8.614161491E0,3.873381615E-1
5.992435173E0,4.049852371E0,8.963812828E0,8.087740541E-1
6.002322257E0,4.102494240E0,9.409176826E0,9.140582681E-1
6.012209392E0,4.334897518E0,9.669994354E0,1.094716340E-1
6.022096527E0,4.653142929E0,9.681958199E0,-1.475474238E0
6.031983611E0,5.460122108E0,9.655637741E0,-2.368296146E0
6.041870746E0,6.372086525E0,9.579067230E0,-2.356332064E0
6.051757882E0,6.523133755E0,9.203095436E0,-2.105085611E0
6.061644965E0,5.915057659E0,8.628518105E0,-1.748256087E0
6.071532100E0,5.079364300E0,8.108976364E0,-1.235892892E0
6.081419236E0,4.662714005E0,7.929515362E0,-6.708876491E-1
6.091306319E0,4.703392029E0,8.190631866E0,-4.124628007E-1
6.101193454E0,4.767998219E0,8.461020470E0,-1.800599098E-1
6.111080590E0,5.060221672E0,8.537590981E0,-2.452643216E-2
6.120967673E0,5.792724609E0,8.556734085E0,6.400800496E-2
6.130854809E0,6.858129025E0,8.377271652E0,6.400800496E-2
6.140741944E0,7.720143318E0,8.073084831E0,1.381855011E-1
6.150629027E0,7.643572807E0,7.577471256E0,4.471587241E-1
6.160516163E0,6.767201424E0,7.163512707E0,1.000199914E0
6.170403298E0,6.166304111E0,7.271189690E0,1.330409408E0
6.180290382E0,6.245266914E0,7.695018291E0,1.349851131E0
6.190177517E0,6.238088608E0,8.063512802E0,1.115055323E0
6.200064652E0,5.888437271E0,8.116155624E0,1.184447169E0
6.209951736E0,5.450551033E0,7.984549999E0,1.366600871E0
6.219838871E0,5.258825779E0,7.934300900E0,1.316052437E0
6.229726007E0,5.201398373E0,7.826623917E0,9.523434043E-1
6.239613090E0,5.440979481E0,7.750053406E0,6.481558084E-1
6.249500225E0,5.773581982E0,7.833802223E0,4.136592150E-1
6.259387361E0,5.974878311E0,8.006085396E0,1.788634956E-1
6.269274444E0,5.931807518E0,8.130512238E0,-8.673982322E-2
6.279161579E0,5.862116337E0,8.391629219E0,-2.925225794E-1
6.289048715E0,5.682654858E0,8.659625053E0,-3.454637825E-1
6.298935850E0,5.311468124E0,8.678768158E0,-4.004986882E-1
6.308822934E0,5.031507969E0,8.520841599E0,-2.398804724E-1
6.318710069E0,5.100899696E0,8.336593628E0,-1.752742529E-1
6.328597204E0,5.405087471E0,8.137690544E0,5.204389244E-2
6.338484288E0,5.737689495E0,7.826623917E0,2.093719877E-2
6.348371423E0,5.998806477E0,7.376473904E0,7.597211748E-2
6.358258559E0,6.106483459E0,6.902396202E0,1.764706671E-1
6.368145642E0,6.032305717E0,6.548258305E0,2.940180898E-1
6.378032777E0,5.864509106E0,6.332605362E0,4.471587241E-1
6.387919913E0,6.084948063E0,6.596114635E0,6.314060688E-1
6.397806996E0,6.573382854E0,7.228118896E0,5.500500798E-1
6.407694132E0,6.748058796E0,7.855337620E0,5.165506005E-1
6.417581267E0,6.305087566E0,8.341380119E0,4.758726060E-1
6.427468350E0,5.213362217E0,8.508877754E0,4.615156651E-1
6.437355486E0,4.492823601E0,8.504091263E0,5.261218548E-1
6.447242621E0,4.624428749E0,8.367700577E0,6.864410043E-1
6.457129757E0,5.448158264E0,8.379665375E0,5.069792867E-1
6.467016840E0,6.276373863E0,8.386843681E0,9.032905847E-2
6.476903975E0,6.336194515E0,8.185846329E0,-2.949153781E-1
6.486791111E0,5.982056618E0,7.934300900E0,-3.646063507E-1
6.496678194E0,5.699404240E0,7.910372734E0,-1.513460279E-1
6.506565329E0,5.285147190E0,8.010870934E0,-5.324030295E-2
6.516452465E0,4.974080086E0,8.104190826E0,2.003988922E-1
6.526339548E0,4.729712963E0,8.221738815E0,-1.734796353E-2
6.536226684E0,4.478466511E0,8.355736732E0,-1.154536903E-1
6.546113819E0,4.291826725E0,8.274380684E0,-2.398804724E-1
6.556000902E0,3.834498405E0,8.037192345E0,-3.622135222E-1
6.565888038E0,3.439383507E0,7.838587761E0,-2.374876440E-1
6.575775173E0,3.645166159E0,7.838587761E0,-2.991028363E-3
6.585662309E0,4.195814610E0,8.039585114E0,-5.324030295E-2
6.595549392E0,4.533501625E0,8.161917686E0,2.581257522E-1
6.605436527E0,4.550251484E0,8.312665939E0,2.389831543E-1
6.615323663E0,4.090530396E0,8.341380119E0,5.715855360E-1
6.625210746E0,3.183351517E0,8.135297775E0,9.284151793E-1
6.635097882E0,2.084447622E0,8.065905571E0,9.236295223E-1
6.644985017E0,1.227218866E0,8.156833649E0,1.426421404E0
6.654872152E0,8.922237158E-1,8.463413239E0,1.849951029E0
6.664759236E0,7.986045480E-1,8.954241753E0,1.912463546E0
6.674646371E0,1.081256747E0,9.262915611E0,2.082353830E0
6.684533507E0,1.529013634E0,9.131310463E0,1.989033818E0
6.694420590E0,2.249552488E0,8.781958580E0,1.648953915E0
6.704307725E0,2.800200701E0,8.394021988E0,1.361815214E0
6.714194861E0,3.068196774E0,8.317451477E0,1.328016520E0
6.724081996E0,2.931805849E0,8.628518105E0,1.658525229E0
6.733969079E0,2.199303150E0,9.121739388E0,2.034497499E0
6.743856215E0,1.358824134E0,9.492925644E0,2.709572554E0
6.753743350E0,7.268198729E-1,9.588638306E0,2.831606388E0
6.763630434E0,3.511467278E-1,9.543174744E0,2.963211775E0
6.773517569E0,-2.401795685E-1,9.176774025E0,2.676073074E0
6.783404704E0,-4.989035130E-1,8.709874153E0,2.633002281E0
6.793291788E0,-6.311069429E-2,8.501698494E0,2.709572554E0
6.803178923E0,2.000997961E-1,8.623732567E0,2.487040043E0
6.813066059E0,2.479562461E-1,8.913563728E0,2.515753984E0
6.822953194E0,-8.225327730E-2,9.160024643E0,2.750250578E0
6.832840277E0,-6.711867452E-1,9.267701149E0,2.723929405E0
6.842727413E0,-1.490130305E0,8.937491417E0,2.757428885E0
6.852614548E0,-2.315953255E0,8.487341881E0,2.566003084E0
6.862501632E0,-3.058027267E0,8.013263702E0,2.532503605E0
6.872388767E0,-3.558426380E0,7.587042332E0,2.463111877E0
6.882275902E0,-3.445963621E0,7.419544697E0,2.185245275E0
6.892162986E0,-2.842673302E0,7.635198116E0,1.941177368E0
6.902050121E0,-2.296810627E0,8.245666504E0,1.675274968E0
6.911937257E0,-1.959422588E0,8.746066093E0,1.744666815E0
6.921824392E0,-1.779661894E0,9.002098083E0,2.139781713E0
6.931711475E0,-1.466202021E0,9.047561646E0,2.201995134E0
6.941598611E0,-1.018445134E0,8.915956497E0,2.113460541E0
6.951485746E0,-6.376872063E-1,8.779565811E0,2.261815548E0
6.961372829E0,-8.389834166E-1,8.810671806E0,2.967997313E0
6.971259965E0,-1.178764224E0,8.973383904E0,3.119044304E0
6.981147100E0,-1.209870934E0,9.452247620E0,2.738286495E0
6.991034236E0,-1.090229869E0,1.028764153E1,2.800499916E0
7.000921319E0,-1.248156071E0,1.129801083E1,3.540181160E0
7.010808454E0,-1.784447432E0,1.163091278E1,4.409373760E0
7.020695590E0,-2.306381941E0,1.104437160E1,4.727918625E0
7.030582673E0,-2.840280533E0,1.023499966E1,4.172484398E0
7.040469809E0,-2.615355253E0,9.888040543E0,3.276970625E0
7.050356944E0,-2.067099571E0,1.000050354E1,2.319243431E0
7.060244079E0,-2.000100613E0,1.015603638E1,1.577169180E0
7.070131163E0,-2.236989975E0,1.061575794E1,1.708774447E0
7.080018298E0,-3.187538862E0,1.054636574E1,2.376671076E0
7.089905434E0,-4.260121822E0,1.026132107E1,3.001496792E0
7.099792517E0,-4.626223564E0,1.006510925E1,2.953640461E0
7.109679652E0,-4.068396568E0,9.713065147E0,2.209173441E0
7.119566788E0,-3.405285835E0,9.262915611E0,1.617847204E0
7.129453923E0,-3.151646614E0,8.870492935E0,1.608275890E0
7.139341007E0,-3.209074259E0,8.583054543E0,1.603490233E0
7.149228142E0,-3.144468069E0,8.633303642E0,1.421635747E0
7.159115277E0,-3.230609655E0,8.968598366E0,1.823629975E0
7.169002413E0,-3.448356628E0,9.157630920E0,2.707179785E0
7.178889496E0,-3.170789003E0,9.049954414E0,2.333600283E0
7.188776632E0,-2.275275230E0,8.801100731E0,1.608275890E0
7.198663767E0,-1.264905930E0,8.590232849E0,1.062413216E0
7.208550850E0,-7.190431952E-1,8.338987350E0,9.571290612E-1
7.218437986E0,-5.371887088E-1,8.209774017E0,8.638089895E-1
7.228325121E0,-4.941178858E-1,8.496912956E0,6.696912646E-1
7.238212257E0,-3.720839322E-1,8.944669724E0,4.256233275E-1
7.248099340E0,-3.218346536E-1,9.449854851E0,2.027917206E-1
7.257986475E0,-3.146561682E-1,1.011535835E1,-4.268197417E-1
7.267873611E0,-1.588236094E-1,1.082154083E1,-4.124628007E-1
7.277760694E0,-3.439682722E-2,1.095314598E1,-2.931207791E-2
7.287647829E0,3.008974493E-1,1.039771175E1,4.965107143E-2
7.297534965E0,6.933203340E-1,9.648459435E0,1.453639716E-1
7.307422100E0,8.440681696E-1,8.923134804E0,3.346960545E-1
7.317309184E0,7.842476368E-1,8.434700012E0,9.355936646E-1
7.327196319E0,6.478567123E-1,8.353343964E0,1.459920883E0
7.337083454E0,4.779663086E-1,8.439485550E0,1.840379715E0
7.346970538E0,5.066801906E-1,8.405985832E0,1.922034740E0
7.356857673E0,6.454638839E-1,8.401200294E0,1.727917075E0
7.366744809E0,1.145862937E0,8.650053978E0,1.488634825E0
7.376631944E0,1.753939033E0,9.064311028E0,1.368993640E0
7.386519027E0,2.247159481E0,9.382855415E0,9.978070259E-1
7.396406163E0,2.519941330E0,9.538389206E0,8.207381964E-1
7.406293298E0,2.556132793E0,9.598209381E0,7.366902828E-1
7.416180434E0,2.299801588E0,9.531210899E0,5.763711333E-1
7.426067517E0,1.981556296E0,9.447462082E0,6.768696904E-1
7.435954652E0,1.739582062E0,9.289535522E0,8.518448472E-1
7.445841788E0,1.624726534E0,9.188737869E0,8.781659007E-1
7.455728871E0,1.734796405E0,9.128917694E0,9.188438654E-1
7.465616007E0,1.938186288E0,9.200701714E0,8.279166222E-1
7.475503142E0,2.278266191E0,9.356534958E0,4.686941206E-1
7.485390277E0,2.556132793E0,9.521639824E0,3.849453330E-1
7.495277361E0,2.804986238E0,9.521639824E0,2.868396044E-1
7.505164496E0,3.065804005E0,9.545567513E0,3.873381615E-1
7.515051632E0,2.982055187E0,9.483354568E0,1.501496136E-1
7.524938767E0,2.874378204E0,9.282357216E0,4.591228366E-1
7.534825850E0,2.606382132E0,9.107381821E0,8.470591903E-1
7.544712986E0,2.206481695E0,9.148059845E0,7.920243144E-1
7.554600121E0,2.139482498E0,9.416355133E0,3.370888829E-1
7.564487204E0,2.225624084E0,9.631709099E0,7.597211748E-2
7.574374340E0,2.204088688E0,9.693922997E0,-2.931207791E-2
7.584261475E0,2.077269077E0,9.727422714E0,-2.452643216E-2
7.594148611E0,1.926222205E0,9.631709099E0,-6.281159073E-2
7.604035694E0,2.015055656E0,9.442676544E0,2.093719877E-2
7.613922829E0,2.120339870E0,9.282357216E0,9.750752151E-2
7.623809965E0,2.172981977E0,9.140881538E0,2.724826932E-1
7.633697100E0,2.216052771E0,9.097810745E0,2.892324328E-1
7.643584184E0,2.228017092E0,9.133703232E0,3.131606579E-1
7.653471319E0,2.168196440E0,9.289535522E0,3.610171080E-1
7.663358454E0,2.141875267E0,9.294321060E0,3.945166469E-1
7.673245538E0,2.271087885E0,9.155238152E0,3.777668774E-1
7.683132673E0,2.637488842E0,9.004490852E0,2.147558331E-1
7.693019809E0,3.089732170E0,9.006883621E0,-6.520441920E-2
7.702906944E0,3.286242723E0,9.116953850E0,-1.944168359E-1
7.712794027E0,3.130709410E0,9.234201431E0,-7.238288224E-2
7.722681163E0,2.754737139E0,9.382855415E0,-1.016949583E-2
7.732568298E0,2.323729992E0,9.315856934E0,-1.130608693E-1
7.742455382E0,2.101197481E0,9.126524925E0,5.443671346E-2
7.752342517E0,2.172981977E0,8.947062492E0,1.645065546E-1
7.762229652E0,2.582453728E0,8.808279037E0,1.794616925E-3
7.772116788E0,3.226422310E0,8.722137451E0,-1.944168359E-1
7.782003871E0,3.695714474E0,8.647661209E0,-4.004986882E-1
7.791891007E0,4.013959885E0,8.693124771E0,-8.001000881E-1
7.801778142E0,4.174279213E0,8.882456779E0,-6.852445602E-1
7.811665277E0,4.009174347E0,8.906385422E0,-7.019943595E-1
7.821552361E0,3.894318819E0,8.870492935E0,-6.924230456E-1
7.831439496E0,3.951746702E0,8.899206161E0,-4.651049078E-1
7.841326632E0,3.956532240E0,8.841778755E0,-3.813561201E-1
7.851213715E0,4.088137627E0,8.571090698E0,-3.212364316E-1
7.861100850E0,3.784249067E0,8.832207680E0,2.940180898E-1
7.870987986E0,3.726821184E0,8.755637169E0,-1.489532143E-1
7.880875121E0,4.373182297E0,8.999705315E0,-1.489532143E-1
7.890762257E0,4.931009293E0,9.270093918E0,-1.441675574E-1
7.900649340E0,5.177470207E0,9.243772507E0,-3.116651475E-1
7.910536475E0,5.254040241E0,9.078668594E0,-4.244269133E-1
7.920423611E0,5.088935375E0,8.753244400E0,-2.494517565E-1
7.930310694E0,4.612464905E0,8.413164139E0,2.811566554E-2
7.940197829E0,4.229613304E0,8.238488197E0,1.836491376E-1
7.950084965E0,4.219742775E0,8.315058708E0,-1.345962733E-1
7.959972100E0,4.691427708E0,8.729315758E0,-7.666005492E-1
7.969859184E0,5.244469166E0,9.097810745E0,-1.286142230E0
7.979746319E0,5.479264736E0,9.262915611E0,-1.566401482E0
7.989633454E0,5.524728298E0,9.231808662E0,-1.695613980E0
7.999520590E0,5.383552074E0,8.808279037E0,-1.554437399E0
8.009407673E0,5.294718266E0,8.391629219E0,-1.219143152E0
8.019294809E0,5.287539959E0,8.472985268E0,-8.288139701E-1
8.029181944E0,5.256433010E0,8.803493500E0,-5.297111273E-1
8.039069079E0,5.194219589E0,9.112167358E0,-2.159522474E-1
8.048956163E0,5.091328144E0,9.104989052E0,-2.931207791E-2
8.058843298E0,4.988437176E0,8.772386551E0,-1.345962733E-1
8.068730434E0,5.041079044E0,8.417949677E0,-1.944168359E-1
8.078617569E0,5.268397331E0,8.209774017E0,-2.350948304E-1
8.088504652E0,5.603691578E0,8.188239098E0,-3.454637825E-1
8.098391788E0,5.790331841E0,8.221738815E0,-2.829512656E-1
8.108278923E0,5.752046585E0,8.238488197E0,-7.716853172E-2
8.118166007E0,5.438586712E0,8.144868851E0,1.094716340E-1
8.128053142E0,5.170291424E0,8.053941727E0,3.251247704E-1
8.137940277E0,4.974080086E0,8.097012520E0,3.562314808E-1
8.147827413E0,4.832903385E0,8.219346046E0,4.160520434E-1
8.157714496E0,4.777569294E0,8.370093346E0,4.974080026E-1
8.167601632E0,4.760819912E0,8.432307243E0,6.026921868E-1
8.177488767E0,4.657928467E0,8.365307808E0,6.361917257E-1
8.187375902E0,4.641178608E0,8.379665375E0,7.271189690E-1
8.197262986E0,4.880760193E0,8.559126854E0,7.606185079E-1
8.207150121E0,5.048257351E0,8.746066093E0,5.715855360E-1
8.217037257E0,5.055436134E0,8.781958580E0,4.686941206E-1
8.226924392E0,4.940580368E0,8.781958580E0,4.232304990E-1
8.236811475E0,4.907081127E0,8.841778755E0,3.993022740E-1
8.246698611E0,4.954937458E0,8.908778191E0,2.485544533E-1
8.256585746E0,5.115256786E0,9.095417976E0,1.046859920E-1
8.266472882E0,5.426622868E0,9.284749985E0,-3.409772366E-2
8.276359965E0,5.639584064E0,9.200701714E0,-1.920240223E-1
8.286247100E0,5.455336571E0,8.903991699E0,-3.981058598E-1
8.296134236E0,5.179862976E0,8.666803360E0,-3.454637825E-1
8.306021371E0,5.007579803E0,8.585447311E0,-2.350948304E-1
8.315908454E0,4.895116806E0,8.511270523E0,-4.127619043E-2
8.325795590E0,4.942973614E0,8.341380119E0,-2.997010350E-1
8.335682725E0,5.146363258E0,8.291130066E0,-3.020938635E-1
8.345569861E0,5.189434052E0,8.240880966E0,-5.727819204E-1
8.355456944E0,5.263611794E0,8.099405289E0,-9.870393276E-1
8.365344079E0,5.364409447E0,8.120941162E0,-1.372283816E0
8.375231215E0,5.347659588E0,8.279166222E0,-1.317248821E0
8.385118350E0,5.084149837E0,8.260024071E0,-1.003789067E0
8.395005434E0,4.940580368E0,8.120941162E0,-5.823532343E-1
8.404892569E0,5.163113117E0,8.001299858E0,-8.072785139E-1
8.414779704E0,5.443372250E0,8.068299294E0,-8.790631890E-1
8.424666840E0,5.476871967E0,8.056334496E0,3.050848842E-2
8.434553923E0,5.244469166E0,7.912765503E0,8.566305041E-1
8.444441059E0,5.364409447E0,7.766803265E0,9.978070259E-1
8.454328194E0,5.735296726E0,7.637590885E0,7.271189690E-1
8.464215329E0,5.970092297E0,7.484150887E0,3.059822023E-1
8.474102413E0,5.910272121E0,7.314260483E0,1.477568001E-1
8.483989548E0,5.764010429E0,7.297510624E0,1.381855011E-1
8.493876684E0,5.572584629E0,7.505686283E0,9.750752151E-2
8.503763819E0,5.294718266E0,7.730910778E0,7.597211748E-2
8.513650902E0,4.933402061E0,7.881658554E0,2.509472668E-1
8.523538038E0,4.590929508E0,7.955836296E0,3.370888829E-1
8.533425173E0,4.473680973E0,8.125726700E0,1.286142170E-1
8.543312309E0,4.681856632E0,8.293522835E0,-1.728814393E-1
8.553199392E0,4.947759151E0,8.293522835E0,-3.403790295E-1
8.563086527E0,5.100899696E0,8.329415321E0,-4.435695112E-1
8.572973663E0,4.983651161E0,8.422736168E0,-3.957130313E-1
8.582860798E0,4.272684097E0,8.417949677E0,-1.345962733E-1
8.592747882E0,3.731606960E0,8.410771370E0,1.262213886E-1
8.602635017E0,3.705285788E0,8.578269005E0,2.027917206E-1
8.612522152E0,4.061816216E0,8.810671806E0,-1.734796353E-2
8.622409288E0,4.480859280E0,8.930313110E0,-4.606183618E-2
8.632296371E0,4.545465946E0,8.774779320E0,6.400800496E-2
8.642183507E0,4.387539387E0,8.528019905E0,-1.657029688E-1
8.652070642E0,4.202992916E0,8.355736732E0,-1.872383654E-1
8.661957777E0,3.999603033E0,8.396414757E0,-8.195417374E-2
8.671844913E0,3.604488134E0,8.480163574E0,1.190429255E-1
8.681731996E0,2.812164783E0,8.599804878E0,4.088735580E-1
8.691619132E0,2.098804474E0,8.695517540E0,9.044869542E-1
8.701506267E0,1.560120344E0,8.606983185E0,1.277767301E0
8.711393402E0,1.232004523E0,8.489734650E0,1.335195065E0
8.721280486E0,9.687940478E-1,8.444271088E0,1.785344839E0
8.731167621E0,6.765705943E-1,8.422736168E0,2.190030813E0
8.741054757E0,7.627122402E-1,8.341380119E0,2.096710920E0
8.750941892E0,9.951151013E-1,8.346165657E0,1.866700768E0
8.760828975E0,1.028614640E0,8.329415321E0,2.501396894E0
8.770716111E0,8.560323119E-1,8.116155624E0,3.032902718E0
8.780603246E0,7.531409264E-1,7.948657513E0,2.944069147E0
8.790490382E0,6.957131624E-1,7.982157230E0,2.671287298E0
8.800377465E0,5.880361795E-1,8.123333931E0,2.407777786E0
8.810264600E0,5.413761362E-2,8.099405289E0,2.123031855E0
8.820151736E0,-9.299107194E-1,8.025228500E0,2.041675806E0
8.830038871E0,-1.530808330E0,8.149654388E0,2.012962103E0
8.839926007E0,-1.612164259E0,8.434700012E0,1.658525229E0
8.849813090E0,-1.346261859E0,8.741280556E0,1.890628934E0
8.859700225E0,-1.140479088E0,9.057132721E0,1.665703654E0
8.869587361E0,-1.478166223E0,9.162417412E0,2.072782516E0
8.879474444E0,-2.311167479E0,8.915956497E0,2.702394009E0
8.889361579E0,-3.201895714E0,8.463413239E0,3.463610888E0
8.899248715E0,-3.244966507E0,8.197810173E0,3.643371582E0
8.909135850E0,-2.177169561E0,8.930313110E0,3.233899832E0
8.919022986E0,-1.011266708E0,1.030678463E1,3.638586044E0
8.928910069E0,-9.251250625E-1,1.129801083E1,4.610371113E0
8.938797204E0,-1.961815476E0,1.132193947E1,4.885844707E0
8.948684340E0,-3.311965704E0,1.064447117E1,4.924129963E0
8.958571475E0,-3.343072414E0,1.022303581E1,4.308875561E0
8.968458611E0,-1.944766641E0,1.042911720E1,3.028116941E0
8.978345694E0,-4.677968323E-1,1.052243805E1,1.534098387E0
8.988232829E0,4.492524564E-1,1.044826031E1,8.087740541E-1
8.998119965E0,2.623131871E-1,1.039771175E1,7.438687682E-1
9.008007100E0,-4.773681164E-1,1.035464096E1,1.608275890E0
9.017894184E0,-1.200299621E0,1.017996502E1,1.933998942E0
9.027781319E0,-1.865803480E0,9.890433311E0,2.063211441E0
9.037668454E0,-2.495414972E0,9.413962364E0,2.333600283E0
9.047555590E0,-2.667997360E0,9.035597801E0,2.230708838E0
9.057442673E0,-2.363809586E0,9.004490852E0,2.211566210E0
9.067329809E0,-1.765304923E0,9.095417976E0,1.955534339E0
9.077216944E0,-6.735795736E-1,9.531210899E0,1.790130496E0
9.087104079E0,4.277170599E-1,1.003160954E1,1.366600871E0
9.096991163E0,1.009472013E0,9.988538742E0,8.662018180E-1
9.106878298E0,8.416753411E-1,9.564710617E0,5.859424472E-1
9.116765434E0,5.353940725E-1,9.191130638E0,5.620142221E-1
9.126652569E0,3.272185028E-1,9.104989052E0,6.361917257E-1
9.136539704E0,5.413761362E-2,9.315856934E0,7.271189690E-1
9.146426788E0,1.495514181E-3,9.528818130E0,8.590233326E-1
9.156313923E0,9.002995491E-2,9.686744690E0,7.654041648E-1
9.166201059E0,1.953141540E-1,9.900004387E0,7.462615371E-1
9.176088194E0,1.785643846E-1,9.952646255E0,7.342974544E-1
9.185975277E0,-8.464609832E-2,9.765707016E0,7.414759398E-1
9.195862413E0,-1.995015889E-1,9.387641907E0,8.590233326E-1
9.205749548E0,-8.225327730E-2,9.026025772E0,1.115055323E0
9.215636684E0,1.833500415E-1,8.789136887E0,1.083948612E0
9.225523767E0,6.646065116E-1,8.590232849E0,1.093519926E0
9.235410902E0,1.107577801E0,8.535198212E0,1.215553880E0
9.245298038E0,1.248754263E0,8.453842163E0,1.414457321E0
9.255185173E0,1.069292665E0,8.379665375E0,1.589133382E0
9.265072309E0,8.464609981E-1,8.386843681E0,1.878664851E0
9.274959392E0,5.832505226E-1,8.341380119E0,2.029711723E0
9.284846527E0,3.559323549E-1,8.439485550E0,2.197209358E0
9.294733663E0,2.886342406E-1,8.722137451E0,2.185245275E0
9.304620798E0,4.971089065E-1,9.045168877E0,1.864308000E0
9.314507934E0,1.176969647E0,9.330213547E0,1.701596022E0
9.324395017E0,2.065304995E0,9.720243454E0,9.930213690E-1
9.334282152E0,2.867199659E0,1.020149994E1,8.614161611E-1
9.344169288E0,3.106781006E0,1.036181927E1,5.620142221E-1
9.354056423E0,2.855235577E0,1.028764153E1,4.208376706E-1
9.363943507E0,2.517548561E0,1.016321468E1,5.811567903E-1
9.373830642E0,2.184946060E0,9.935896873E0,4.830510616E-1
9.383717777E0,2.029412746E0,9.607781410E0,4.351946115E-1
9.393604913E0,2.235195398E0,9.318249702E0,2.748754919E-1
9.403492048E0,2.730808735E0,9.279664993E0,-7.238288224E-2
9.413379132E0,3.161816120E0,9.303893089E0,-2.159522474E-1
9.423266267E0,3.360420227E0,9.299106598E0,-4.914259613E-1
9.433153402E0,3.200101137E0,9.248558998E0,-4.004986882E-1
9.443040538E0,2.900699139E0,9.176774025E0,-2.183450609E-1
9.452927621E0,2.649452925E0,9.093025208E0,-7.238288224E-2
9.462814757E0,2.548954248E0,9.023633003E0,9.750752151E-2
9.472701892E0,2.649452925E0,8.923134804E0,2.988037169E-1
9.482589027E0,2.876770973E0,8.911170959E0,2.222333997E-1
9.492476163E0,3.077768087E0,8.999705315E0,4.328017831E-1
9.502363246E0,3.003590584E0,8.942276955E0,6.529414654E-1
9.512250382E0,2.764308453E0,8.808279037E0,6.601199508E-1
9.522137517E0,2.711666346E0,8.750851631E0,8.901300430E-1
9.532024652E0,2.730808735E0,8.820243835E0,8.470591903E-1
9.541911736E0,2.953341246E0,8.913563728E0,7.534400225E-1
9.551798871E0,3.262314558E0,9.069096565E0,5.285146832E-1
9.561686007E0,3.515953779E0,9.351749420E0,4.543372095E-1
9.571573142E0,3.518346548E0,9.507282257E0,7.127620578E-1
9.581460277E0,3.255136013E0,9.447462082E0,4.447658956E-1
9.591347361E0,3.185744286E0,9.171988487E0,3.466601670E-1
9.601234496E0,3.180958509E0,8.932705879E0,1.046859920E-1
9.611121632E0,3.243171930E0,8.829814911E0,-2.452643216E-2
9.621008767E0,3.233600616E0,8.841778755E0,1.190429255E-1
9.630895902E0,3.192922831E0,9.014061928E0,3.753740489E-1
9.640782986E0,3.190529823E0,9.171988487E0,5.572285652E-1
9.650670121E0,3.338884830E0,9.277272224E0,4.040879309E-1
9.660557257E0,3.532703638E0,9.311071396E0,3.011965454E-1
9.670444392E0,3.465704441E0,9.215059280E0,3.777668774E-1
9.680331475E0,3.377170086E0,9.102596283E0,4.304089844E-1
9.690218611E0,3.501596928E0,9.119346619E0,4.591228366E-1
9.700105746E0,3.722035646E0,9.210273743E0,2.964109182E-1
9.709992882E0,3.777070522E0,9.164810181E0,1.262213886E-1
9.719880017E0,3.597309828E0,9.047561646E0,-5.982056609E-4
9.729767100E0,3.355634689E0,8.875278473E0,8.075776696E-2
9.739654236E0,3.456133127E0,8.662017822E0,9.511470050E-2
9.749541371E0,3.817748547E0,8.645268440E0,-1.704886109E-1
9.759428507E0,4.176671982E0,8.796315193E0,-3.861417472E-1
9.769315590E0,4.456931114E0,9.004490852E0,-5.201398134E-1
9.779202725E0,4.655535698E0,9.186345100E0,-4.914259613E-1
9.789089861E0,4.648356915E0,9.325428009E0,-3.622135222E-1
9.798976996E0,4.380361080E0,9.195916176E0,-1.633101404E-1
9.808864132E0,4.109673023E0,8.877671242E0,2.003988922E-1
9.818751215E0,4.059423447E0,8.760422707E0,1.836491376E-1
9.828638350E0,4.516751766E0,8.908778191E0,-3.957130313E-1
9.838525486E0,5.203791142E0,9.152845383E0,-1.061216831E0
9.848412621E0,5.634798050E0,9.193523407E0,-1.192822099E0
9.858299757E0,5.344967365E0,8.841778755E0,-8.910273314E-1
9.868186840E0,4.875974178E0,8.286344528E0,-7.331010103E-1
9.878073975E0,4.669892311E0,8.156833649E0,-3.355933726E-1
9.887961111E0,4.808975220E0,8.415556908E0,-1.154536903E-1
9.897848246E0,5.091328144E0,8.779565811E0,1.381855011E-1
9.907735329E0,5.304289818E0,9.018847466E0,4.280161560E-1
9.917622465E0,5.376373291E0,9.014061928E0,2.916252613E-1
9.927509600E0,5.630012512E0,9.200701714E0,2.844468057E-1
9.937396736E0,6.013163090E0,9.303893089E0,3.011965454E-1
9.947283871E0,6.288337708E0,9.152845383E0,3.825525343E-1
9.957171007E0,6.226124287E0,8.836993217E0,3.299104273E-1
9.967058090E0,6.101697922E0,8.324629784E0,3.777668774E-1
9.976945225E0,5.996413708E0,7.843373299E0,6.481558084E-1
9.986832361E0,5.927021503E0,7.503293514E0,8.805587292E-1
9.996719496E0,5.744868279E0,7.421937466E0,1.057627559E0
1.000660658E1,5.474479198E0,7.553543091E0,1.500598907E0
1.001649372E1,5.318646431E0,7.797909737E0,1.785344839E0
1.002638085E1,5.381158829E0,8.140083313E0,1.763809443E0
1.003626799E1,5.503192902E0,8.528019905E0,1.806880236E0
1.004615512E1,5.507978439E0,8.697910309E0,1.694417477E0
1.005604220E1,5.735296726E0,8.712266922E0,1.179661512E0
1.006592934E1,6.307480335E0,8.868100166E0,6.002993584E-1
1.007581648E1,6.683452606E0,9.083454132E0,-5.084748194E-2
1.008570361E1,6.391229153E0,9.030811310E0,-3.188436031E-1
1.009559075E1,5.816652775E0,8.839385986E0,-2.207378894E-1
1.010547783E1,5.393123150E0,8.508877754E0,-9.631111473E-2
1.011536497E1,5.232504845E0,8.087441444E0,-1.274178028E-1
1.012525210E1,5.572584629E0,7.769196033E0,-9.631111473E-2
1.013513924E1,5.948556900E0,7.498507977E0,-1.609173268E-1
1.014502637E1,6.084948063E0,7.204190731E0,-8.913264424E-2
1.015491345E1,6.072983742E0,7.053442955E0,1.794616925E-3
1.016480059E1,6.087340832E0,6.938288212E0,1.716850251E-1
1.017468772E1,6.053841114E0,6.885646343E0,4.208376706E-1
1.018457486E1,5.491229057E0,6.952645302E0,3.634099364E-1
1.019446194E1,4.847260475E0,7.158727169E0,5.739783049E-1
1.020434908E1,4.873581409E0,7.287939548E0,6.074778438E-1
1.021423622E1,5.496014595E0,7.352545738E0,7.630113363E-1
1.022412335E1,6.061019897E0,7.352545738E0,6.601199508E-1
1.023401049E1,6.324230194E0,7.323832035E0,4.830510616E-1
1.024389757E1,6.139982700E0,7.414759159E0,3.969094455E-1
1.025378470E1,5.641976833E0,7.491329670E0,4.136592150E-1
1.026367184E1,5.103292465E0,7.601698399E0,5.667998791E-1
1.027355898E1,4.648356915E0,7.754838943E0,6.696912646E-1
1.028344611E1,4.430610180E0,8.061120033E0,7.677969933E-1
1.029333319E1,4.564608097E0,8.468199730E0,8.470591903E-1
1.030322033E1,4.662714005E0,8.662017822E0,6.792625189E-1
1.031310746E1,4.672285080E0,8.638090134E0,2.629113793E-1
1.032299460E1,4.466502666E0,8.341380119E0,3.131606579E-1
1.033288174E1,4.073780537E0,7.965407372E0,2.003988922E-1
1.034276882E1,3.867997885E0,7.706982613E0,2.485544533E-1
1.035265595E1,3.942175388E0,7.618448257E0,3.107678294E-1
1.036254309E1,4.193421841E0,7.635198116E0,2.485544533E-1
1.037243022E1,4.502394676E0,7.769196033E0,1.740778536E-1
1.038231736E1,4.864010334E0,7.960621834E0,1.597209126E-1
1.039220450E1,5.151148796E0,8.257631302E0,2.147558331E-1
1.040209158E1,5.309075356E0,8.451449394E0,4.806582630E-1
1.041197872E1,5.239683151E0,8.623732567E0,7.247261405E-1
1.042186585E1,4.681856632E0,8.829814911E0,7.055835724E-1
1.043175299E1,3.829712629E0,8.868100166E0,8.901300430E-1
1.044164012E1,3.408276796E0,8.820243835E0,9.667003751E-1
1.045152720E1,3.513561010E0,8.647661209E0,7.414759398E-1
1.046141434E1,3.887140274E0,8.439485550E0,6.864410043E-1
1.047130148E1,4.325325966E0,8.324629784E0,7.366902828E-1
1.048118861E1,4.760819912E0,8.365307808E0,5.883352757E-1
1.049107575E1,5.155934811E0,8.609375954E0,7.438687682E-1
1.050096283E1,5.234897614E0,8.860920906E0,1.098305583E0
1.051084996E1,4.641178608E0,8.911170959E0,1.450349569E0
1.052073710E1,3.269493103E0,8.793922424E0,1.965105653E0
1.053062424E1,1.703689694E0,8.734101295E0,2.546860695E0
1.054051137E1,3.343969584E-1,8.868100166E0,2.656930447E0
1.055039845E1,-2.353939265E-1,8.956634521E0,2.999104023E0
1.056028559E1,-1.564307809E-1,8.906385422E0,3.209971666E0
1.057017272E1,4.133601189E-1,8.822636604E0,2.944069147E0
1.058005986E1,1.282253861E0,8.695517540E0,2.740679264E0
1.058994700E1,1.883151412E0,8.554341316E0,2.441277266E0
1.059983413E1,2.067697763E0,8.516056061E0,2.424527645E0
1.060972122E1,1.555334687E0,8.482556343E0,2.554039001E0
1.061960835E1,6.023930907E-1,8.355736732E0,2.671287298E0
1.062949549E1,-3.218346536E-1,8.389236450E0,2.664108992E0
1.063938262E1,-1.001695395E0,8.559126854E0,2.625823736E0
1.064926976E1,-1.633699656E0,8.760422707E0,2.537289381E0
1.065915684E1,-2.122134686E0,8.930313110E0,2.285743713E0
1.066904398E1,-2.189133644E0,8.884849548E0,2.340778828E0
1.067893111E1,-1.829911113E0,8.784351349E0,2.079961061E0
1.068881825E1,-1.353440285E0,8.729315758E0,1.912463546E0
1.069870538E1,-8.796614408E-1,8.705088615E0,1.794916034E0
1.070859246E1,-5.180460811E-1,8.779565811E0,1.727917075E0
1.071847960E1,-4.654040039E-1,8.767601013E0,2.094317913E0
1.072836674E1,-6.711867452E-1,8.758029938E0,2.261815548E0
1.073825387E1,-1.095015407E0,8.683553696E0,2.266601324E0
1.074814101E1,-1.439880967E0,8.499305725E0,2.106282234E0
1.075802814E1,-1.549950838E0,8.374878883E0,1.785344839E0
1.076791523E1,-1.566700578E0,8.422736168E0,1.567597985E0
1.077780236E1,-1.683948994E0,8.568697929E0,1.833201289E0
1.078768950E1,-1.774876237E0,8.717052460E0,2.285743713E0
1.079757663E1,-1.564307809E0,8.813064575E0,2.300100803E0
1.080746377E1,-1.224227905E0,8.846564293E0,2.168495417E0
1.081735085E1,-1.018445134E0,8.772386551E0,2.151745796E0
1.082723799E1,-1.028016448E0,8.875278473E0,2.156531334E0
1.083712512E1,-1.059123158E0,9.169595718E0,1.993819475E0
1.084701226E1,-1.118943691E0,9.406784058E0,1.842772484E0
1.085689939E1,-1.334297776E0,9.433105469E0,1.536491275E0
1.086678653E1,-1.554736495E0,9.387641907E0,1.481456280E0
1.087667361E1,-1.750947952E0,9.390034676E0,1.703988791E0
1.088656075E1,-1.985743642E0,9.619745255E0,2.470290184E0
1.089644788E1,-2.043171406E0,1.000289631E1,3.317648649E0
1.090633502E1,-1.753340840E0,1.037378311E1,3.908974886E0
1.091622215E1,-1.502094388E0,1.051525879E1,4.052544117E0
1.092610924E1,-1.834696770E0,1.037139034E1,4.237090588E0
1.093599637E1,-2.914458036E0,9.837491989E0,4.543372154E0
1.094588351E1,-3.656831264E0,9.614959717E0,4.603192329E0
1.095577064E1,-3.460320711E0,1.008903790E1,4.567300320E0
1.096565778E1,-2.696711063E0,1.069950676E1,3.971188307E0
1.097554491E1,-1.473380566E0,1.090528965E1,3.245863914E0
1.098543200E1,-4.175475538E-1,1.073539925E1,2.431705952E0
1.099531913E1,-1.348953694E-1,1.063729286E1,1.519741535E0
1.100520627E1,-7.262216806E-1,1.076889801E1,1.253839016E0
1.101509340E1,-1.506880045E0,1.106351471E1,1.498206019E0
1.102498054E1,-2.315953255E0,1.097258759E1,1.306481123E0
1.103486767E1,-2.833101988E0,1.050329494E1,1.196411371E0
1.104475476E1,-2.749353170E0,9.823135376E0,1.122233868E0
1.105464189E1,-2.380559444E0,9.260522842E0,3.681955934E-1
1.106452903E1,-2.055135489E0,8.968598366E0,-5.084748194E-2
1.107441616E1,-1.691127419E0,8.848957062E0,-1.417747438E-1
1.108430330E1,-1.374975681E0,8.851349831E0,-3.909274042E-1
1.109419043E1,-1.097408295E0,8.860920906E0,-1.034895778E-1
1.110407752E1,-8.051848412E-1,8.963812828E0,7.677969933E-1
1.111396465E1,-4.342973232E-1,9.181559563E0,1.711167336E0
1.112385179E1,-2.114657015E-1,9.030811310E0,1.881057739E0
1.113373892E1,-3.200400248E-2,8.444271088E0,2.044068813E0
1.114362606E1,1.977069676E-1,8.061120033E0,1.854736686E0
1.115351319E1,4.229314029E-1,8.362915039E0,2.113460541E0
1.116340028E1,5.928218365E-1,9.066703796E0,1.931606054E0
1.117328741E1,6.622136831E-1,9.796813965E0,1.395314693E0
1.118317455E1,1.265504122E0,1.031874847E1,9.499505758E-1
1.119306168E1,2.098804474E0,1.052961636E1,1.525424421E-1
1.120294882E1,2.596810818E0,1.038574791E1,-2.931207791E-2
1.121283590E1,2.563311338E0,9.962218285E0,1.046859920E-1
1.122272304E1,1.959721804E0,9.497711182E0,4.878367186E-1
1.123261017E1,1.270289779E0,9.057132721E0,9.499505758E-1
1.124249731E1,6.550351977E-1,8.825029373E0,1.196411371E0
1.125238444E1,3.726821244E-1,8.676374435E0,1.445564032E0
1.126227158E1,6.143572330E-1,8.736495018E0,1.833201289E0
1.127215866E1,1.090828061E0,8.896813393E0,2.154138565E0
1.128204580E1,1.596012712E0,8.923134804E0,2.039283037E0
1.129193293E1,1.887937069E0,8.915956497E0,1.601097465E0
1.130182007E1,1.859223247E0,8.954241753E0,1.316052437E0
1.131170720E1,1.591227055E0,9.085846901E0,1.237089276E0
1.132159429E1,1.421336651E0,9.267701149E0,9.906286001E-1
1.133148142E1,1.452443361E0,9.435498238E0,1.012163997E0
1.134136856E1,1.435693622E0,9.591031075E0,8.901300430E-1
1.135125569E1,1.488335729E0,9.794421196E0,5.500500798E-1
1.136114283E1,1.842473388E0,1.017517948E1,2.485544533E-1
1.137102996E1,2.311765671E0,1.045783138E1,-4.366901144E-2
1.138091705E1,2.800200701E0,1.040518951E1,-2.494517565E-1
1.139080418E1,2.886342287E0,9.947860718E0,-6.230311990E-1
1.140069132E1,2.699702263E0,9.325428009E0,-9.248259664E-1
1.141057845E1,2.663809776E0,8.887242317E0,-1.015753269E0
1.142046559E1,2.728415966E0,8.889635086E0,-9.631111026E-1
1.143035272E1,2.816950560E0,8.978169441E0,-1.104287624E0
1.144023981E1,3.099303484E0,8.987740517E0,-1.195214868E0
1.145012694E1,3.185744286E0,8.868100166E0,-1.118644595E0
1.146001408E1,3.025125980E0,8.722137451E0,-9.846464992E-1
1.146990122E1,2.812164783E0,8.798707962E0,-9.439685345E-1
1.147978835E1,2.450549603E0,8.944669724E0,-8.048857450E-1
1.148967549E1,2.196910381E0,8.985347748E0,-5.847460628E-1
1.149956257E1,2.216052771E0,9.030811310E0,-5.344967842E-1
1.150944970E1,2.460120678E0,8.954241753E0,-3.669991791E-1
1.151933684E1,2.749951363E0,8.810671806E0,-3.260220885E-1
1.152922398E1,3.063411236E0,8.707481384E0,-4.603192508E-1
1.153911111E1,3.463311672E0,8.765208244E0,-6.924230456E-1
1.154899819E1,3.664607763E0,9.006883621E0,-1.054038405E0
1.155888533E1,3.343670607E0,9.253344536E0,-8.575277925E-1
1.156877246E1,2.582453728E0,9.088239670E0,-2.853440940E-1
1.157865960E1,2.187339067E0,8.908778191E0,1.794616925E-3
1.158854674E1,2.405085802E0,8.978169441E0,2.820539773E-1
1.159843387E1,2.771486759E0,9.212666512E0,3.131606579E-1
1.160832095E1,3.022733212E0,9.478569031E0,2.270190418E-1
1.161820809E1,2.821736097E0,9.514460564E0,1.477568001E-1
1.162809523E1,2.503191471E0,9.299106598E0,1.716850251E-1
1.163798236E1,2.464906454E0,9.097810745E0,4.064807594E-1
1.164786950E1,2.505584478E0,9.040383339E0,4.974080026E-1
1.165775663E1,2.668595552E0,9.143274307E0,4.926223755E-1
1.166764372E1,2.771486759E0,9.260522842E0,3.370888829E-1
1.167753085E1,2.793022156E0,9.116953850E0,-3.888336942E-2
1.168741799E1,2.977269650E0,9.002098083E0,-3.981058598E-1
1.169730512E1,3.384348631E0,9.090632439E0,-5.177469850E-1
1.170719226E1,3.580559969E0,9.258130074E0,-5.440680385E-1
1.171707939E1,3.884747505E0,9.306285858E0,-7.211369276E-1
1.172696648E1,4.174279213E0,9.138488770E0,-7.235297561E-1
1.173685361E1,4.193421841E0,8.717052460E0,-9.152546525E-1
1.174674075E1,4.021138668E0,8.374878883E0,-6.924230456E-1
1.175662788E1,3.757927895E0,8.236095428E0,-3.092723191E-1
1.176651502E1,3.434597731E0,8.264809608E0,-1.016949583E-2
1.177640215E1,3.492025614E0,8.539983749E0,6.400800496E-2
1.178628924E1,4.066602230E0,8.997312546E0,-7.477571070E-2
1.179617637E1,4.567001343E0,9.188737869E0,-3.598206937E-1
1.180606351E1,4.672285080E0,8.963812828E0,-5.440680385E-1
1.181595064E1,4.320540428E0,8.647661209E0,-5.727819204E-1
1.182583778E1,3.908675671E0,8.389236450E0,-4.674977362E-1
1.183572491E1,3.755535126E0,8.417949677E0,-2.327020019E-1
1.184561200E1,3.791427374E0,8.657232285E0,-2.063809484E-1
1.185549913E1,4.011567116E0,8.836993217E0,-4.794618487E-1
1.186538627E1,4.528716087E0,8.896813393E0,-1.022931695E0
1.187527340E1,5.323431969E0,8.961420059E0,-2.129014015E0
1.188516054E1,6.161518097E0,9.030811310E0,-2.878266573E0
1.189504767E1,6.561419010E0,8.956634521E0,-3.098406315E0
1.190493481E1,6.302694798E0,8.685946465E0,-2.942872763E0
1.191482189E1,5.716154099E0,8.298309326E0,-2.670090914E0
1.192470903E1,5.342574596E0,8.065905571E0,-2.114656925E0
1.193459616E1,5.304289818E0,8.015656471E0,-1.568794370E0
1.194448330E1,5.340181828E0,8.166703224E0,-1.276570916E0
1.195437043E1,5.438586712E0,8.563912392E0,-1.010967612E0
1.196425757E1,5.730511189E0,8.951848984E0,-5.823532343E-1
1.197414470E1,5.974878311E0,9.073882103E0,-6.876373887E-1
1.198403179E1,6.379265308E0,9.052347183E0,-6.661019921E-1
1.199391892E1,6.719345093E0,8.994919777E0,-8.551349640E-1
1.200380606E1,6.848557472E0,8.693124771E0,-9.487541914E-1
1.201369319E1,7.006484032E0,8.169096947E0,-9.152546525E-1
1.202358033E1,7.341778278E0,7.651947498E0,-9.248259664E-1
1.203346747E1,7.677072525E0,7.395616531E0,-7.809575200E-1
1.204335460E1,7.420741081E0,7.067800045E0,-6.110670567E-1
1.205324168E1,6.877271175E0,6.770790577E0,-3.717848063E-1
1.206312882E1,6.446264267E0,6.766005039E0,-1.633101404E-1
1.207301595E1,6.214160442E0,6.933502674E0,1.375873014E-2
1.208290309E1,5.996413708E0,7.091728210E0,1.238285750E-1
1.209279022E1,5.823831081E0,7.295117855E0,1.668993831E-1
1.210267736E1,5.704190254E0,7.692625523E0,2.820539773E-1
1.211256444E1,5.694618702E0,8.178668022E0,2.437688112E-1
1.212245158E1,6.065805435E0,8.678768158E0,1.286142170E-1
1.213233872E1,6.381658077E0,9.009276390E0,1.214357466E-1
1.214222585E1,6.489634037E0,9.121739388E0,-1.250249892E-1
1.215211299E1,6.585347176E0,9.095417976E0,-3.188436031E-1
1.216200012E1,6.597311020E0,8.939884186E0,-1.561316848E-1
1.217188726E1,6.362515450E0,8.528019905E0,-2.327020019E-1
1.218177434E1,5.934200287E0,7.881658554E0,-2.518445849E-1
1.219166148E1,5.639584064E0,7.242475986E0,-1.609173268E-1
1.220154861E1,5.845366478E0,6.967002392E0,-3.669991791E-1
1.221143575E1,5.840580940E0,6.646364212E0,-3.933202326E-1
1.222132288E1,6.029912949E0,6.320641041E0,-2.757728100E-1
1.223121002E1,6.137589931E0,6.129215240E0,-3.909274042E-1
1.224109715E1,6.266802311E0,6.153143406E0,-4.124628007E-1
1.225098429E1,6.360122681E0,6.291927338E0,4.486542568E-2
1.226087137E1,6.321837425E0,6.464210510E0,4.710869491E-1
1.227075851E1,6.429514408E0,6.897610188E0,5.572285652E-1
1.228064564E1,6.381658077E0,7.307082176E0,4.495515525E-1
1.229053278E1,6.338587284E0,7.455437183E0,4.567300081E-1
1.230041991E1,6.587739944E0,7.414759159E0,2.844468057E-1
1.231030705E1,6.850950241E0,7.498507977E0,9.272187948E-2
1.232019418E1,6.834200382E0,7.555935860E0,-2.452643216E-2
1.233008127E1,6.597311020E0,7.630412102E0,-3.649054468E-2
1.233996840E1,5.910272121E0,7.706982613E0,-1.537388563E-1
1.234985554E1,5.220541000E0,7.814659595E0,-1.872383654E-1
1.235974267E1,4.765605450E0,8.027621269E0,-1.226321608E-1
1.236962981E1,4.602893353E0,8.350951195E0,-5.563312769E-2
1.237951694E1,4.727320194E0,8.578269005E0,-5.324030295E-2
1.238940408E1,5.041079044E0,8.714659691E0,-2.422732860E-1
1.239929116E1,5.402694225E0,8.630910873E0,-4.651049078E-1
1.240917830E1,5.553442478E0,8.271987915E0,-6.637091637E-1
1.241906543E1,5.249254704E0,7.821837902E0,-6.373881102E-1
1.242895257E1,4.600500584E0,7.678268909E0,-5.679962635E-1
1.243883970E1,3.755535126E0,7.898408413E0,-1.944168359E-1
1.244872684E1,2.819343328E0,8.271987915E0,4.064807594E-1
1.245861398E1,2.455335140E0,8.927920341E0,4.663013220E-1
1.246850111E1,2.953341246E0,9.509675026E0,8.590233326E-1
1.247838819E1,3.705285788E0,9.423533440E0,6.026921868E-1
1.248827533E1,4.404289246E0,8.758029938E0,4.486542568E-2
1.249816246E1,4.962115765E0,8.058727264E0,-7.776673418E-3
1.250804960E1,4.928616524E0,7.639983654E0,2.389831543E-1
1.251793674E1,4.490430832E0,7.611269951E0,4.567300081E-1
1.252782387E1,3.623630762E0,7.814659595E0,8.805587292E-1
1.253771101E1,2.450549603E0,8.056334496E0,1.167697430E0
1.254759814E1,1.308574915E0,8.355736732E0,8.063812256E-1
1.255748528E1,4.301098585E-1,8.985347748E0,4.519443810E-1
1.256737241E1,-7.746763527E-2,9.533603668E0,1.021735311E0
1.257725950E1,2.335993052E-1,9.509675026E0,1.021735311E0
1.258714663E1,1.387538075E0,9.258130074E0,2.811566554E-2
1.259703377E1,1.868794441E0,1.057747269E1,-3.292523861E0
1.260692090E1,4.356432915E0,7.671090126E0,5.592026711E0
1.261680804E1,1.021436214E0,5.607280731E0,4.967200756E0
1.262669517E1,7.770691514E-1,6.418746948E0,3.284149170E0
1.263658231E1,6.239284873E-1,6.943074226E0,3.703192234E0
1.264646939E1,-1.660020649E-1,7.156334400E0,3.643371582E0
1.265635653E1,-1.274477124E0,7.314260483E0,3.379862070E0
1.266624366E1,-1.782054663E0,7.512865067E0,3.087937593E0
1.267613080E1,-1.810768485E0,7.474579811E0,2.499004126E0
1.268601793E1,-1.758126378E0,7.508079052E0,2.335993052E0
1.269590507E1,-2.026421785E0,7.888837337E0,2.948854923E0
1.270579220E1,-1.808375716E0,8.501698494E0,3.293720484E0
1.271567934E1,-3.625126183E-1,9.552745819E0,2.893819809E0
1.272556642E1,6.406782866E-1,1.081914711E1,3.193221807E0
1.273545356E1,-7.597211599E-1,1.115444183E1,5.022235394E0
1.274534069E1,-3.441178083E0,1.017517948E1,6.477969170E0
1.275522783E1,-5.265406132E0,9.116953850E0,5.687739372E0
1.276511496E1,-4.461118698E0,9.550353050E0,4.421338081E0
1.277500210E1,-2.265703917E0,1.080239773E1,2.438884497E0
1.278488924E1,-1.046859939E-2,1.190847969E1,5.572285652E-1
1.279477637E1,1.069292665E0,1.240887928E1,-1.657029688E-1
1.280466351E1,5.928218365E-1,1.216002560E1,2.246262282E-1
1.281455059E1,-8.051848412E-1,1.152802086E1,1.036092162E0
1.282443773E1,-1.839482427E0,1.058704376E1,1.543669701E0
1.283432486E1,-1.947159410E0,9.765707016E0,1.941177368E0
1.284421200E1,-1.334297776E0,9.375677109E0,1.857129455E0
1.285409913E1,-5.802595019E-1,9.296713829E0,1.809273005E0
1.286398627E1,4.217349738E-2,9.274879456E0,1.842772484E0
1.287387340E1,3.918247223E-1,9.035597801E0,1.500598907E0
1.288376054E1,4.731806815E-1,8.676374435E0,9.595218897E-1
1.289364762E1,2.303091809E-2,8.360522270E0,1.483849168E0
1.290353476E1,-8.341978192E-1,8.513663292E0,2.376671076E0
1.291342189E1,-1.392024517E0,9.040383339E0,2.242672920E0
1.292330903E1,-9.825528264E-1,9.772886276E0,1.979462504E0
1.293319616E1,-2.811566591E-1,1.003400230E1,1.864308000E0
1.294308330E1,7.088737190E-2,9.940682411E0,2.056032896E0
1.295297043E1,-7.507480681E-2,9.667601585E0,2.003390789E0
1.296285757E1,-1.013958603E-1,9.492925644E0,1.708774447E0
1.297274470E1,-6.071787328E-2,9.332606316E0,2.142174482E0
1.298263179E1,-8.225327730E-2,9.423533440E0,1.694417477E0
1.299251892E1,2.000997961E-1,9.981360435E0,1.160519004E0
1.300240606E1,2.814557552E-1,1.000528908E1,8.087740541E-1
1.301229319E1,4.301098585E-1,9.720243454E0,1.031306505E0
1.302218033E1,5.617151260E-1,9.638887405E0,1.067198873E0
1.303206746E1,6.047859192E-1,9.442676544E0,1.012163997E0
1.304195460E1,8.321040869E-1,9.164810181E0,1.172483087E0
1.305184174E1,1.004686356E0,9.064311028E0,1.464706540E0
1.306172887E1,1.052542806E0,9.126524925E0,1.646561027E0
1.307161595E1,8.802596331E-1,9.231808662E0,2.123031855E0
1.308150309E1,7.603194118E-1,9.323035240E0,2.441277266E0
1.309139023E1,8.898309469E-1,9.299106598E0,1.787737608E0
1.310127736E1,1.275075316E0,9.287142754E0,1.639382601E0
1.311116450E1,1.854437590E0,9.100203514E0,1.792523265E0
1.312105163E1,2.433799744E0,8.810671806E0,1.878664851E0
1.313093877E1,2.594418049E0,8.549555779E0,1.780559182E0
1.314082590E1,2.266302109E0,8.334200859E0,2.079961061E0
1.315071304E1,1.732403636E0,8.159524918E0,2.496611357E0
1.316060012E1,1.624726534E0,8.188239098E0,2.276172638E0
1.317048726E1,2.110768557E0,8.427521706E0,1.593919039E0
1.318037439E1,2.491227388E0,8.659625053E0,1.354636669E0
1.319026153E1,2.568096876E0,8.836993217E0,1.167697430E0
1.320014866E1,2.328515530E0,8.966205597E0,1.296909928E0
1.321003580E1,2.027019978E0,8.999705315E0,1.421635747E0
1.321992293E1,1.986341953E0,8.978169441E0,9.810572863E-1
1.322981007E1,2.218445778E0,9.246166229E0,3.586242795E-1
1.323969720E1,2.663809776E0,9.765707016E0,-1.920240223E-1
1.324958434E1,3.176172972E0,1.029721355E1,-5.775675774E-1
1.325947142E1,3.487239838E0,1.029960632E1,-7.666005492E-1
1.326935856E1,3.511168242E0,9.873683929E0,-7.043871880E-1
1.327924569E1,3.360420227E0,9.452247620E0,-6.996015310E-1
1.328913283E1,3.164208889E0,9.152845383E0,-7.378866673E-1
1.329901997E1,3.379562855E0,8.970991135E0,-9.029914737E-1
1.330890710E1,3.779463291E0,8.829814911E0,-9.990034699E-1
1.331879424E1,4.157529354E0,8.851349831E0,-1.027717352E0
1.332868137E1,4.171886444E0,8.911170959E0,-8.144569993E-1
1.333856851E1,3.755535126E0,8.970991135E0,-8.024929166E-1
1.334845564E1,3.310171127E0,8.973383904E0,-3.717848063E-1
1.335834272E1,3.087339401E0,8.985347748E0,2.572284266E-2
1.336822986E1,3.113959551E0,9.061918259E0,1.238285750E-1
1.337811700E1,3.384348631E0,9.069096565E0,2.844468057E-1
1.338800413E1,3.688536167E0,9.040383339E0,2.437688112E-1
1.339789127E1,3.870390654E0,9.085846901E0,2.988037169E-1
1.340777840E1,3.894318819E0,9.064311028E0,6.122635007E-1
1.341766554E1,3.781856298E0,8.949456215E0,6.936194897E-1
1.342755267E1,3.841676712E0,8.817850113E0,8.327022791E-1
1.343743981E1,3.891926050E0,8.707481384E0,7.175477147E-1
1.344732689E1,3.896711588E0,8.781958580E0,5.261218548E-1
1.345721403E1,3.865604877E0,8.908778191E0,3.155534863E-1
1.346710116E1,3.903890133E0,9.002098083E0,-1.010967568E-1
1.347698830E1,3.954139471E0,8.937491417E0,-4.507479668E-1
1.348687543E1,4.176671982E0,8.791529655E0,-7.067800164E-1
1.349676257E1,4.459323883E0,8.707481384E0,-7.378866673E-1
1.350664970E1,4.504787922E0,8.595019341E0,-5.823532343E-1
1.351653684E1,4.299005032E0,8.487341881E0,-2.183450609E-1
1.352642398E1,4.162314892E0,8.539983749E0,1.854437590E-2
1.353631111E1,4.066602230E0,8.681160927E0,2.700898647E-1
1.354619825E1,3.906282902E0,8.832207680E0,4.112663865E-1
1.355608533E1,3.633202076E0,8.884849548E0,6.314060688E-1
1.356597247E1,3.640380621E0,8.815457344E0,8.997012973E-1
1.357585960E1,3.882354736E0,8.836993217E0,7.701897621E-1
1.358574674E1,4.265505314E0,8.987740517E0,4.495515525E-1
1.359563387E1,4.433002949E0,9.109774590E0,4.486542568E-2
1.360552101E1,4.421039104E0,9.140881538E0,-2.901297510E-1
1.361540814E1,4.392324924E0,9.076275826E0,-4.938187599E-1
1.362529528E1,4.547858715E0,8.915956497E0,-5.943173170E-1
1.363518241E1,4.631607533E0,8.693124771E0,-7.450651526E-1
1.364506955E1,4.464109898E0,8.484949112E0,-5.919244885E-1
1.365495663E1,4.437788486E0,8.362915039E0,-3.170489892E-2
1.366484377E1,4.356432915E0,8.190631866E0,1.429711580E-1
1.367473090E1,4.294219494E0,8.089834213E0,-3.649054468E-2
1.368461804E1,4.418646336E0,8.104190826E0,-3.765704632E-1
1.369450517E1,4.976472855E0,8.322237015E0,-1.456032634E0
1.370439231E1,5.869294643E0,8.774779320E0,-2.172084808E0
1.371427944E1,6.384050846E0,8.997312546E0,-2.121835470E0
1.372416658E1,6.202196121E0,9.095417976E0,-1.726720691E0
1.373405372E1,5.409873009E0,9.085846901E0,-1.650150299E0
1.374394085E1,4.823332310E0,8.959027290E0,-1.424925923E0
1.375382799E1,4.708177567E0,8.887242317E0,-1.178465128E0
1.376371507E1,4.916652203E0,8.889635086E0,-1.020538807E0
1.377360220E1,5.359623432E0,8.949456215E0,-1.104287624E0
1.378348934E1,6.151947021E0,8.980562210E0,-1.305284739E0
1.379337648E1,6.982555389E0,8.798707962E0,-1.427318692E0
1.380326361E1,7.561917782E0,8.398807526E0,-1.190429211E0
1.381315075E1,7.734499931E0,7.869694710E0,-8.048857450E-1
1.382303788E1,7.502097130E0,7.299903870E0,-4.555336237E-1
1.383292502E1,7.219744205E0,6.797111988E0,1.615155302E-2
1.384281215E1,7.100102901E0,6.524330139E0,2.940180898E-1
1.385269929E1,6.941877365E0,6.421139717E0,3.921238184E-1
1.386258637E1,6.882057190E0,6.411568165E0,4.710869491E-1
1.387247351E1,6.736094952E0,6.586543560E0,6.577271223E-1
1.388236064E1,6.429514408E0,6.892824650E0,8.662018180E-1
1.389224778E1,6.331408501E0,7.359724045E0,9.882357717E-1
1.390213491E1,6.128018856E0,7.809874058E0,1.119840980E0
1.391202205E1,5.974878311E0,8.128119469E0,1.115055323E0
1.392190918E1,5.845366478E0,8.305487633E0,1.060020447E0
1.393179632E1,5.677868843E0,8.492127419E0,7.654041648E-1
1.394168345E1,5.591727257E0,8.712266922E0,3.897309899E-1
1.395157059E1,5.752046585E0,8.994919777E0,1.836491376E-1
1.396145772E1,5.996413708E0,9.241379738E0,-1.010967568E-1
1.397134486E1,6.168696880E0,9.401998520E0,-2.590230405E-1
1.398123200E1,6.125626087E0,9.112167358E0,-4.507479668E-1
1.399111913E1,5.924628735E0,8.525627136E0,-6.254240274E-1
1.400100622E1,5.574977875E0,7.857730389E0,-6.684948206E-1
1.401089335E1,5.270790100E0,7.376473904E0,-5.368895531E-1
1.402078049E1,4.899902344E0,6.892824650E0,-2.853440940E-1
1.403066762E1,4.808975220E0,6.390032768E0,2.270190418E-1
1.404055476E1,5.050650597E0,6.086144447E0,5.476573110E-1
1.405044189E1,5.467300415E0,5.810670853E0,1.052842021E0
1.406032903E1,5.737689495E0,5.767600060E0,1.296909928E0
1.407021616E1,5.816652775E0,6.088537216E0,1.277767301E0
1.408010330E1,5.725725651E0,6.509973049E0,1.459920883E0
1.408999043E1,5.958128452E0,6.873682022E0,1.653739572E0
1.409987757E1,6.331408501E0,7.110870838E0,1.629811287E0
1.410976541E1,7.023233414E0,7.498507977E0,1.328016520E0
1.411965255E1,7.358527660E0,7.773981571E0,9.092726111E-1
1.412953963E1,6.905985355E0,7.807481289E0,7.630113363E-1
1.413942677E1,6.317051888E0,7.757231712E0,8.398807645E-1
1.414931400E1,5.962913990E0,7.800302505E0,9.068797827E-1
1.415920114E1,5.854938030E0,7.991728306E0,9.978070259E-1
1.416908828E1,5.740082264E0,8.123333931E0,1.004985452E0
1.417897541E1,5.661119461E0,8.094619751E0,9.236295223E-1
1.418886255E1,5.895616055E0,8.231309891E0,8.949156404E-1
1.419874968E1,5.529513836E0,8.410771370E0,7.872386575E-1
1.420863682E1,4.787439823E0,8.338987350E0,6.361917257E-1
1.421852395E1,4.466502666E0,8.245666504E0,5.835496187E-1
1.422841109E1,4.500001907E0,8.322237015E0,4.591228366E-1
1.423829822E1,4.775176525E0,8.489734650E0,3.801597059E-1
1.424818536E1,5.103292465E0,8.638090134E0,1.046859920E-1
1.425807250E1,5.280361176E0,8.578269005E0,1.908276081E-1
1.426795963E1,5.335396290E0,8.355736732E0,1.357926875E-1
1.427784671E1,5.268397331E0,8.291130066E0,-2.781656384E-1
1.428773385E1,4.712963104E0,8.317451477E0,3.768695518E-2
1.429762098E1,3.750749588E0,8.341380119E0,3.370888829E-1
1.430750812E1,2.615953445E0,8.405985832E0,5.165506005E-1
1.431739526E1,1.694118381E0,8.520841599E0,8.949156404E-1
1.432728239E1,1.569691658E0,8.616554260E0,1.263410330E0
1.433716953E1,2.211267233E0,8.566305161E0,1.342672586E0
1.434705666E1,3.274278641E0,8.547162056E0,1.215553880E0
1.435694380E1,4.224827290E0,8.734101295E0,1.088734269E0
1.436683093E1,4.634000301E0,8.860920906E0,1.189232826E0
1.437671807E1,4.363611221E0,8.844171524E0,1.308874011E0
1.438660520E1,3.484847069E0,8.673981667E0,1.237089276E0
1.439649234E1,2.187339067E0,8.599804878E0,1.184447169E0
1.440637947E1,5.114658475E-1,8.671588898E0,1.517348647E0
1.441626661E1,-1.083051324E0,8.911170959E0,1.924427629E0
1.442615374E1,-1.805982947E0,9.231808662E0,2.649751902E0
1.443604088E1,-1.671984792E0,9.344570160E0,2.879462957E0
1.444592802E1,-1.006481051E0,9.224630356E0,2.532503605E0
1.445581510E1,3.888336709E-3,9.126524925E0,1.957927108E0
1.446570229E1,7.387840152E-1,8.966205597E0,1.962712765E0
1.447558937E1,9.664012194E-1,8.630910873E0,2.319243431E0
1.448547651E1,7.459624410E-1,8.279166222E0,2.379063845E0
1.449536364E1,2.407777756E-1,8.161917686E0,2.628216505E0
1.450525078E1,-4.893322289E-1,8.166703224E0,2.568396091E0
1.451513791E1,-1.142871857E0,8.288737297E0,2.750250578E0
1.452502505E1,-2.248954296E0,8.264809608E0,2.676073074E0
1.453491218E1,-3.457927704E0,8.123333931E0,2.812463999E0
1.454479932E1,-3.666402578E0,8.128119469E0,2.752643347E0
1.455468645E1,-2.933600664E0,8.070692062E0,2.333600283E0
1.456457359E1,-1.777269006E0,8.331808090E0,1.981855392E0
1.457446072E1,-9.466604590E-1,8.758029938E0,1.965105653E0
1.458434786E1,-4.510470629E-1,8.925527573E0,1.981855392E0
1.459423500E1,-3.314059377E-1,8.901598930E0,2.161317110E0
1.460412213E1,-5.324030519E-1,8.712266922E0,2.120639086E0
1.461400927E1,-8.724829555E-1,8.525627136E0,2.010569334E0
1.462389640E1,-1.341476202E0,8.386843681E0,2.020140409E0
1.463378354E1,-1.786840320E0,8.319844246E0,2.242672920E0
1.464367062E1,-2.217847586E0,8.355736732E0,2.426920414E0
1.465355776E1,-2.203490496E0,8.484949112E0,2.496611357E0
1.466344489E1,-1.827518344E0,8.441878319E0,2.618645191E0
1.467333203E1,-1.303191066E0,8.212167740E0,2.340778828E0
1.468321916E1,-6.544370055E-1,7.982157230E0,1.965105653E0
1.469310630E1,1.283151209E-1,8.034799576E0,1.529312730E0
1.470299343E1,6.765705943E-1,8.734101295E0,1.974676847E0
1.471288057E1,6.454638839E-1,9.995717049E0,2.453241348E0
1.472276770E1,-2.907279432E-1,1.170748329E1,3.564109325E0
1.473265484E1,-2.560320139E0,1.221266747E1,6.116353989E0
1.474254197E1,-6.582355976E0,1.039292622E1,7.737192154E0
1.475242911E1,-9.744770050E0,8.144868851E0,7.727620602E0
1.476231625E1,-9.134301186E0,7.814659595E0,6.192924023E0
1.477220338E1,-5.588736534E0,9.289535522E0,4.366302967E0
1.478209052E1,-2.069492579E0,1.076889801E1,1.922034740E0
1.479197765E1,4.947160780E-1,1.151575851E1,4.950151742E-1
1.480186479E1,9.999007583E-1,1.183908844E1,6.529414654E-1
1.481175192E1,-6.711867452E-1,1.164766216E1,1.799701691E0
1.482163906E1,-2.746960402E0,1.072104168E1,2.213959217E0
1.483152619E1,-3.570390463E0,9.497711182E0,1.885843396E0
1.484141333E1,-2.983849764E0,8.851349831E0,1.095912814E0
1.485130046E1,-1.468594909E0,9.207880974E0,6.864410043E-1
1.486118760E1,-1.372881979E-1,9.803992271E0,5.045864582E-1
1.487107468E1,2.479562461E-1,1.010818005E1,3.945166469E-1
1.488096182E1,-1.157527938E-1,9.933504105E0,5.667998791E-1
1.489084895E1,-9.418748021E-1,9.466604233E0,9.547362328E-1
1.490073609E1,-1.667199135E0,9.014061928E0,1.596311808E0
1.491062322E1,-1.820339799E0,8.813064575E0,2.008176327E0
1.492051036E1,-1.331904888E0,8.810671806E0,2.065604210E0
1.493039750E1,-7.501499057E-1,9.042776108E0,1.658525229E0
1.494028463E1,-5.419743061E-1,9.435498238E0,1.450349569E0
1.495017176E1,-7.046862841E-1,9.653244972E0,1.433599830E0
1.496005890E1,-9.610173702E-1,9.653244972E0,1.270588875E0
1.496994604E1,-1.130907774E0,9.545567513E0,9.643075466E-1
1.497983317E1,-1.274477124E0,9.423533440E0,9.236295223E-1
1.498972031E1,-1.291226864E0,9.535996437E0,1.045663476E0
1.499960744E1,-1.214656591E0,9.734601021E0,9.547362328E-1
1.500949458E1,-1.171585798E0,9.911968231E0,1.160519004E0
1.501938171E1,-1.142871857E0,1.001486015E1,1.234696507E0
1.502926885E1,-1.243370414E0,9.909575462E0,1.086341500E0
1.503915598E1,-1.257727385E0,9.648459435E0,9.308080077E-1
1.504904312E1,-1.399203062E0,9.421140671E0,9.619147182E-1
1.505893026E1,-1.671984792E0,9.370891571E0,1.095912814E0
1.506881739E1,-1.767697692E0,9.289535522E0,1.170090318E0
1.507870453E1,-1.367797256E0,9.267701149E0,1.088734269E0
1.508859166E1,-5.084748268E-1,9.267701149E0,1.088734269E0
1.509847880E1,3.511467278E-1,9.265308380E0,1.069591761E0
1.510836593E1,8.802596331E-1,9.368498802E0,7.848458290E-1
1.511825307E1,1.002293587E0,9.478569031E0,9.858429432E-1
1.512814020E1,9.544371367E-1,9.519247055E0,1.155733347E0
1.513802734E1,1.172183990E0,9.342177391E0,8.494520187E-1
1.514791447E1,1.401894927E0,9.061918259E0,5.476573110E-1
1.515780156E1,1.493121386E0,8.968598366E0,1.357926875E-1
1.516768869E1,1.394716501E0,9.066703796E0,-1.537388563E-1
1.517757583E1,1.069292665E0,9.140881538E0,-2.398804724E-1
1.518746296E1,5.449653864E-1,9.006883621E0,-1.974078640E-2
1.519735010E1,2.479562461E-1,8.856135368E0,1.525424421E-1
1.520723723E1,4.133601189E-1,8.772386551E0,2.940180898E-1
1.521712437E1,9.496514797E-1,8.889635086E0,2.605185509E-1
1.522701150E1,1.526620865E0,9.136096001E0,4.543372095E-1
1.523689864E1,1.820937991E0,9.246166229E0,4.495515525E-1
1.524678578E1,1.981556296E0,9.301499367E0,4.208376706E-1
1.525667291E1,2.024626970E0,9.150452614E0,4.710869491E-1
1.526656005E1,2.194517374E0,8.944669724E0,6.098706722E-1
1.527644718E1,2.182553291E0,8.767601013E0,7.534400225E-1
1.528633432E1,1.942971945E0,8.784351349E0,1.012163997E0
1.529622145E1,1.617548108E0,8.947062492E0,1.457528114E0
1.530610859E1,1.557727575E0,9.241379738E0,1.699203134E0
1.531599572E1,1.746760488E0,9.567103386E0,1.519741535E0
1.532588286E1,2.352443695E0,9.871291161E0,1.268195987E0
1.533577000E1,3.034697294E0,1.004835987E1,1.261017561E0
1.534565713E1,3.334099293E0,9.904789925E0,9.762716293E-1
1.535554426E1,3.307778120E0,9.497711182E0,6.361917257E-1
1.536543140E1,3.240779161E0,9.112167358E0,5.452644825E-1
1.537531854E1,2.838485956E0,8.935098648E0,3.681955934E-1
1.538520567E1,2.285444736E0,8.927920341E0,4.734797776E-1
1.539509281E1,1.902294040E0,8.925527573E0,7.342974544E-1
1.540497994E1,2.022234201E0,8.927920341E0,8.757730722E-1
1.541486708E1,2.558525562E0,9.066703796E0,6.553342938E-1
1.542475421E1,3.240779161E0,9.265308380E0,6.290132403E-1
1.543464135E1,3.551846027E0,9.457033157E0,4.399802685E-1
1.544452848E1,3.717249870E0,9.564710617E0,3.538386524E-1
1.545441562E1,3.573381424E0,9.387641907E0,3.538386524E-1
1.546430276E1,3.338884830E0,8.966205597E0,2.027917206E-1
1.547418989E1,3.324527979E0,8.551948547E0,1.136590727E-2
1.548407703E1,3.590131283E0,8.401200294E0,-1.250249892E-1
1.549396416E1,3.927818298E0,8.288737297E0,-3.502494097E-1
1.550385130E1,3.899104595E0,8.248059273E0,-4.387838542E-1
1.551373843E1,3.599702597E0,8.408378601E0,-3.646063507E-1
1.552362557E1,3.391526937E0,8.590232849E0,-2.614158690E-1
1.553351270E1,3.554239035E0,8.750851631E0,5.443671346E-2
1.554339984E1,3.755535126E0,8.801100731E0,1.286142170E-1
1.555328697E1,3.949353695E0,8.942276955E0,1.597209126E-1
1.556317411E1,4.102494240E0,9.040383339E0,3.801597059E-1
1.557306125E1,4.202992916E0,9.052347183E0,2.916252613E-1
1.558294838E1,4.207778454E0,9.143274307E0,-5.153541565E-1
1.559283552E1,4.306183338E0,9.495318413E0,-7.498508096E-1
1.560272265E1,4.299005032E0,9.722636223E0,-7.618148923E-1
1.561260979E1,4.361218452E0,9.748957634E0,-7.187440991E-1
1.562249692E1,4.748855591E0,9.547960281E0,-4.627120793E-1
1.563238406E1,4.895116806E0,9.083454132E0,-5.703890920E-1
1.564227114E1,5.098506927E0,8.746066093E0,-6.182455420E-1
1.565215833E1,5.266004562E0,8.736495018E0,2.333002165E-2
1.566204541E1,5.048257351E0,8.997312546E0,3.346960545E-1
1.567193260E1,5.115256786E0,9.394820213E0,7.836493850E-2
1.568181968E1,5.340181828E0,9.648459435E0,-3.598206937E-1
1.569170682E1,5.551049232E0,9.720243454E0,-2.446661144E-1
1.570159395E1,5.445765018E0,9.514460564E0,-3.044866920E-1
1.571148109E1,5.476871967E0,9.054739952E0,-1.633101404E-1
1.572136822E1,5.565406322E0,8.432307243E0,-1.058823988E-1
1.573125536E1,5.720939636E0,8.032406807E0,-1.202393398E-1
1.574114250E1,5.778367519E0,7.936693668E0,1.094716340E-1
1.575102968E1,5.670690536E0,7.903193951E0,5.955137610E-1
1.576091682E1,5.424229622E0,7.907979965E0,7.390831113E-1
1.577080390E1,5.246861935E0,8.015656471E0,9.260223508E-1
1.578069104E1,5.143970490E0,8.221738815E0,7.510471940E-1
1.579057817E1,5.275575638E0,8.451449394E0,4.184448719E-1
1.580046531E1,5.632405281E0,8.638090134E0,1.573280841E-1
1.581035244E1,5.917450428E0,8.729315758E0,9.990034252E-2
1.582023958E1,6.013163090E0,8.633303642E0,-7.776673418E-3
1.583012671E1,5.866901875E0,8.542376518E0,-1.974078640E-2
1.584001385E1,5.584548950E0,8.511270523E0,1.333998591E-1
1.584990098E1,5.462514877E0,8.405985832E0,2.270190418E-1
1.585978812E1,5.594120026E0,8.341380119E0,3.083750308E-1
1.586967526E1,5.749653816E0,8.248059273E0,3.993022740E-1
1.587956239E1,5.689833164E0,8.144868851E0,3.442673683E-1
1.588944953E1,5.481657505E0,8.188239098E0,3.251247704E-1
1.589933666E1,5.256433010E0,8.216953278E0,5.787639618E-1
1.590922380E1,5.076971531E0,8.190631866E0,6.026921868E-1
1.591911093E1,4.847260475E0,8.161917686E0,6.266204119E-1
1.592899807E1,4.545465946E0,8.236095428E0,4.615156651E-1
1.593888520E1,4.370789528E0,8.384450912E0,5.117649436E-1
1.594877234E1,4.212564468E0,8.571090698E0,7.103692293E-1
1.595865947E1,4.279862404E0,8.813064575E0,7.848458290E-1
1.596854661E1,4.794618607E0,9.023633003E0,3.179463148E-1
1.597843374E1,5.469693661E0,9.026025772E0,-1.752742529E-1
1.598832088E1,5.869294643E0,8.748458862E0,-2.614158690E-1
1.599820802E1,5.831009865E0,8.307880402E0,-3.092723191E-1
1.600809515E1,5.491229057E0,7.939086437E0,-1.944168359E-1
1.601798229E1,5.143970490E0,7.656733513E0,-7.776673418E-3
1.602786942E1,4.933402061E0,7.426723480E0,3.466601670E-1
1.603775656E1,4.931009293E0,7.402794838E0,4.782654345E-1
1.604764369E1,4.995615482E0,7.584649563E0,2.581257522E-1
1.605753083E1,5.009972572E0,7.742875099E0,9.511470050E-2
1.606741796E1,4.871188641E0,7.728518009E0,1.405783296E-1
1.607730510E1,4.705784798E0,7.716553688E0,3.873381615E-1
1.608719223E1,4.842474937E0,8.053941727E0,5.596213937E-1
1.609707937E1,4.861617565E0,8.417949677E0,5.572285652E-1
1.610696651E1,4.880760193E0,8.758029938E0,5.667998791E-1
1.611685364E1,5.024329185E0,9.037990570E0,6.553342938E-1
1.612674078E1,5.139184952E0,9.071489334E0,5.117649436E-1
1.613662791E1,5.117649555E0,8.822636604E0,2.772683203E-1
1.614651505E1,4.916652203E0,8.463413239E0,1.262213886E-1
1.615640218E1,4.720141888E0,8.204988480E0,1.333998591E-1
1.616628937E1,4.545465946E0,8.120941162E0,2.844468057E-1
1.617617650E1,4.516751766E0,8.207381248E0,1.549352705E-1
1.618606364E1,4.741677284E0,8.422736168E0,1.740778536E-1
1.619595078E1,4.830510616E0,8.578269005E0,3.394817114E-1
1.620583791E1,4.409074783E0,8.518448830E0,1.046859920E-1
1.621572505E1,3.200101137E0,8.449056625E0,4.136592150E-1
1.622561213E1,2.038984060E0,8.604590416E0,8.614161611E-1
1.623549932E1,1.825723648E0,9.033205032E0,8.973084688E-1
1.624538645E1,2.369193554E0,9.564710617E0,6.816553473E-1
1.625527359E1,3.291028500E0,9.748957634E0,2.389831543E-1
1.626516072E1,3.865604877E0,9.564710617E0,-1.250249892E-1
1.627504786E1,3.762713671E0,9.100203514E0,1.022931710E-1
1.628493500E1,3.317349434E0,8.382058144E0,4.830510616E-1
1.629482213E1,3.020340443E0,7.795516968E0,7.175477147E-1
1.630470926E1,2.749951363E0,7.575078487E0,9.379864931E-1
1.631459640E1,2.261516571E0,7.558328629E0,1.174875975E0
1.632448354E1,1.804188251E0,7.785945892E0,1.632204175E0
1.633437067E1,1.392323732E0,8.132905006E0,1.677667737E0
1.634425781E1,9.759725332E-1,8.554341316E0,1.275374413E0
1.635414494E1,3.918247223E-1,9.023633003E0,1.555633783E0
1.636403208E1,-6.903293133E-1,9.428318977E0,2.252244234E0
1.637391921E1,-1.516451359E0,9.401998520E0,2.211566210E0
1.638380635E1,-1.379761338E0,8.966205597E0,2.060818434E0
1.639369348E1,-7.094719410E-1,8.386843681E0,1.926820397E0
1.640358062E1,1.115653589E-1,8.032406807E0,2.316850424E0
1.641346776E1,6.622136831E-1,7.963014603E0,2.499004126E0
1.642335489E1,7.004988194E-1,8.063512802E0,2.343171597E0
1.643324203E1,1.905284971E-1,8.144868851E0,2.594717026E0
1.644312916E1,-7.094719410E-1,8.080263138E0,2.824428082E0
1.645301630E1,-1.444666624E0,8.113762856E0,3.166900873E0
1.646290343E1,-2.122134686E0,8.166703224E0,3.037688255E0
1.647279057E1,-2.639283419E0,8.355736732E0,2.757428885E0
1.648267770E1,-2.778067112E0,8.585447311E0,2.613859653E0
1.649256484E1,-2.861815929E0,8.693124771E0,2.379063845E0
1.650245197E1,-2.617748022E0,8.767601013E0,1.979462504E0
1.651233911E1,-2.289632082E0,8.734101295E0,1.782951951E0
1.652222625E1,-1.832303882E0,8.738887787E0,1.507777333E0
1.653211338E1,-1.597807288E0,8.722137451E0,1.138983607E0
1.654200052E1,-1.566700578E0,8.602197647E0,1.210768223E0
1.655188765E1,-1.851446509E0,8.597412109E0,1.732702732E0
1.656177479E1,-2.416451693E0,8.781958580E0,2.702394009E0
1.657166192E1,-2.955136061E0,9.224630356E0,3.384647608E0
1.658154906E1,-2.888136864E0,9.629316330E0,3.715156317E0
1.659143619E1,-2.318346024E0,1.000768185E1,4.100400925E0
1.660132333E1,-2.074278116E0,1.025174904E1,4.354339123E0
1.661121046E1,-2.347059965E0,1.022303581E1,5.094020367E0
1.662109760E1,-3.072683334E0,9.693922997E0,5.951249123E0
1.663098473E1,-3.448356628E0,8.872885704E0,6.195316792E0
1.664087187E1,-2.715853691E0,8.731708527E0,5.675775528E0
1.665075900E1,-1.324726462E0,9.344570160E0,4.294518471E0
1.666064614E1,3.499503061E-2,1.029003429E1,2.304886341E0
1.667053333E1,1.160219908E0,1.105394363E1,1.105484009E0
1.668042046E1,1.349252820E0,1.121904850E1,7.271189690E-1
1.669030760E1,5.114658475E-1,1.103719330E1,1.076770186E0
1.670019468E1,-9.418748021E-1,1.083111191E1,1.122233868E0
1.671008187E1,-2.126920223E0,1.081436157E1,1.081555843E0
1.671996900E1,-2.531606436E0,1.071386337E1,8.518448472E-1
1.672985614E1,-2.351845503E0,1.027089214E1,2.796611488E-1
1.673974328E1,-1.528415442E0,9.789635658E0,-1.322034448E-1
1.674963041E1,-1.540379524E-1,9.433105469E0,-7.450651526E-1
1.675951755E1,1.042971611E0,9.579067230E0,-6.278168559E-1
1.676940468E1,1.421336651E0,9.792028427E0,-2.991028363E-3
1.677929182E1,1.150648594E0,9.768099785E0,5.835496187E-1
1.678917895E1,6.789634228E-1,9.543174744E0,1.306481123E0
1.679906609E1,2.503490746E-1,9.183952332E0,1.945963025E0
1.680895322E1,-2.497508675E-1,8.887242317E0,1.996212244E0
1.681884036E1,-2.641077936E-1,8.966205597E0,2.118246317E0
1.682872750E1,2.886342406E-1,9.217452049E0,1.794916034E0
1.683861463E1,8.081758618E-1,9.428318977E0,1.296909928E0
1.684850176E1,8.105686903E-1,9.454640388E0,9.308080077E-1
1.685838890E1,6.215356588E-1,9.375677109E0,7.776673436E-1
1.686827604E1,2.575275302E-1,9.227023125E0,7.127620578E-1
1.687816317E1,-2.617149651E-1,9.140881538E0,5.883352757E-1
1.688805031E1,-6.376872063E-1,9.210273743E0,4.351946115E-1
1.689793744E1,-8.605188727E-1,9.248558998E0,6.098706722E-1
1.690782458E1,-9.059824944E-1,9.311071396E0,5.548357368E-1
1.691771171E1,-7.884350419E-1,9.375677109E0,8.159525394E-1
1.692759885E1,-8.099704385E-1,9.397212982E0,8.973084688E-1
1.693748598E1,-9.227322340E-1,9.442676544E0,7.079764009E-1
1.694737312E1,-9.753743410E-1,9.576674461E0,6.768696904E-1
1.695726026E1,-8.461619020E-1,9.626923561E0,8.829515576E-1
1.696714739E1,-6.257231236E-1,9.452247620E0,4.615156651E-1
1.697703453E1,-1.348953694E-1,9.390034676E0,4.208376706E-1
1.698692166E1,4.935196787E-2,9.435498238E0,7.582256794E-1
1.699680885E1,-1.764706708E-2,9.571888924E0,9.595218897E-1
1.700669598E1,-1.286142133E-2,9.648459435E0,1.000199914E0
1.701658312E1,1.163510010E-1,9.593423843E0,8.949156404E-1
1.702647026E1,2.910270393E-1,9.600603104E0,9.762716293E-1
1.703635739E1,5.904290080E-1,9.665208817E0,1.103091240E0
1.704624453E1,8.970093727E-1,9.617352486E0,1.050449133E0
1.705613166E1,1.076471090E0,9.569496155E0,9.379864931E-1
1.706601880E1,1.294217944E0,9.703494072E0,8.733802438E-1
1.707590593E1,1.438086390E0,9.835099220E0,5.883352757E-1
1.708579307E1,1.682154298E0,9.839884758E0,4.782654345E-1
1.709568020E1,1.744367719E0,9.576674461E0,2.413759828E-1
1.710556734E1,1.574477315E0,9.248558998E0,3.610171080E-1
1.711545447E1,1.313360572E0,8.944669724E0,5.285146832E-1
1.712534161E1,1.212862015E0,8.935098648E0,6.050850153E-1
1.713522875E1,1.301396370E0,9.104989052E0,5.404788256E-1
1.714511588E1,1.490728498E0,9.250951767E0,5.907281041E-1
1.715500302E1,1.799402595E0,9.303893089E0,5.261218548E-1
1.716489015E1,2.165803671E0,9.406784058E0,7.534400225E-1
1.717477729E1,2.438585281E0,9.421140671E0,4.615156651E-1
1.718466442E1,2.644667149E0,9.330213547E0,5.309075117E-1
1.719455156E1,2.651845694E0,9.255737305E0,5.596213937E-1
1.720443869E1,2.539083958E0,9.133703232E0,4.639084935E-1
1.721432588E1,2.596810818E0,9.026025772E0,5.907281041E-1
1.722421302E1,2.637488842E0,8.975776672E0,7.896314859E-1
1.723410015E1,2.649452925E0,8.970991135E0,1.026520967E0
1.724398729E1,2.414657116E0,9.102596283E0,8.350951076E-1
1.725387442E1,2.192124605E0,9.387641907E0,6.337988973E-1
1.726376156E1,2.139482498E0,9.665208817E0,5.715855360E-1
1.727364869E1,2.211267233E0,9.720243454E0,4.830510616E-1
1.728353583E1,2.390728951E0,9.586245537E0,6.768696904E-1
1.729342296E1,2.369193554E0,9.332606316E0,8.638089895E-1
1.730331010E1,2.156232357E0,9.152845383E0,9.403793216E-1
1.731319723E1,1.885544300E0,9.179166794E0,1.048056364E0
1.732308437E1,1.720439434E0,9.227023125E0,9.284151793E-1
1.733297150E1,1.785045743E0,9.188737869E0,9.427721500E-1
1.734285864E1,1.919043779E0,9.215059280E0,6.912266612E-1
1.735274578E1,1.950150490E0,9.212666512E0,5.859424472E-1
1.736263291E1,2.096411705E0,9.246166229E0,6.361917257E-1
1.737252005E1,2.275873423E0,9.334999084E0,8.590233326E-1
1.738240718E1,2.450549603E0,9.433105469E0,7.462615371E-1
1.739229432E1,2.472084999E0,9.626923561E0,6.864410043E-1
1.740218145E1,2.251945257E0,9.521639824E0,9.020941257E-1
1.741206864E1,1.914258122E0,9.370891571E0,1.000199914E0
1.742195578E1,1.926222205E0,9.315856934E0,1.115055323E0
1.743184291E1,2.675773859E0,9.457033157E0,2.581257522E-1
1.744173005E1,4.052245140E0,9.772886276E0,-8.312067389E-1
1.745161718E1,5.210969448E0,9.856933594E0,-1.683649778E0
1.746150432E1,5.359623432E0,9.406784058E0,-1.530509233E0
1.747139145E1,5.005186558E0,8.671588898E0,-1.257428288E0
1.748127859E1,4.263112545E0,8.049156189E0,-5.297111273E-1
1.749116572E1,3.503989697E0,8.116155624E0,1.764706671E-1
1.750105286E1,3.128316402E0,8.724530220E0,6.266204119E-1
1.751094000E1,3.590131283E0,9.373284340E0,7.319046259E-1
1.752082713E1,4.327718735E0,9.808777809E0,3.275175989E-1
1.753071426E1,5.196612358E0,1.027328491E1,3.131606579E-1
1.754060140E1,5.761617661E0,1.060857964E1,4.184448719E-1
1.755048854E1,5.823831081E0,1.033549786E1,8.638089895E-1
1.756037567E1,5.507978439E0,9.765707016E0,1.153340459E0
1.757026281E1,5.366802216E0,9.176774025E0,1.009771109E0
1.758015000E1,5.515157223E0,8.664410591E0,7.896314859E-1
1.759003713E1,5.699404240E0,8.516056061E0,4.806582630E-1
1.759992427E1,5.725725651E0,8.401200294E0,3.538386524E-1
1.760981140E1,5.847759247E0,8.389236450E0,4.136592150E-1
1.761969854E1,5.905187130E0,8.374878883E0,5.285146832E-1
1.762958567E1,5.586941719E0,8.214560509E0,8.111668825E-1
1.763947281E1,5.009972572E0,7.963014603E0,1.060020447E0
1.764935994E1,4.425824642E0,7.857730389E0,1.366600871E0
1.765924708E1,4.090530396E0,7.872087479E0,1.510170221E0
1.766913421E1,4.284647942E0,8.209774017E0,1.701596022E0
1.767902135E1,4.672285080E0,8.688339233E0,1.718345761E0
1.768890848E1,4.942973614E0,9.071489334E0,1.507777333E0
1.769879562E1,5.017150879E0,9.330213547E0,1.328016520E0
1.770868276E1,4.734498501E0,9.375677109E0,1.316052437E0
1.771856989E1,4.444967270E0,9.217452049E0,1.347458243E0
1.772845708E1,4.265505314E0,9.059525490E0,1.268195987E0
1.773834421E1,4.294219494E0,9.023633003E0,1.179661512E0
1.774823135E1,4.377968311E0,8.947062492E0,1.112662554E0
1.775811848E1,4.595715046E0,8.882456779E0,1.069591761E0
1.776800562E1,4.638785839E0,8.815457344E0,1.043270707E0
1.777789276E1,4.550251484E0,8.714659691E0,9.906286001E-1
1.778777989E1,4.526323318E0,8.563912392E0,7.414759398E-1
1.779766703E1,4.674678326E0,8.494520187E0,4.232304990E-1
1.780755416E1,4.823332310E0,8.374878883E0,2.318046987E-1
1.781744130E1,4.923830986E0,8.193024635E0,9.511470050E-2
1.782732843E1,5.081757069E0,8.006085396E0,1.310070455E-1
1.783721557E1,5.055436134E0,7.738089561E0,1.166501045E-1
1.784710270E1,4.907081127E0,7.414759159E0,3.586242795E-1
1.785698984E1,4.753641129E0,7.206583500E0,6.218347549E-1
1.786687703E1,4.767998219E0,7.019644260E0,6.577271223E-1
1.787676416E1,5.141577721E0,6.950252533E0,3.346960545E-1
1.788665130E1,5.603691578E0,6.947859764E0,2.075773627E-1
1.789653843E1,5.850152493E0,6.986145020E0,3.299104273E-1
1.790642557E1,5.603691578E0,7.197012424E0,1.501496136E-1
1.791631270E1,5.167898655E0,7.302296638E0,1.740778536E-1
1.792619984E1,4.830510616E0,7.436294556E0,3.275175989E-1
1.793608697E1,4.828117847E0,7.800302505E0,5.069792867E-1
1.794597411E1,4.998008251E0,8.250452042E0,5.644070506E-1
1.795586124E1,5.036293507E0,8.494520187E0,4.950151742E-1
1.796574838E1,4.887938499E0,8.513663292E0,5.955137610E-1
1.797563552E1,4.588536739E0,8.461020470E0,5.500500798E-1
1.798552265E1,4.073780537E0,8.374878883E0,5.261218548E-1
1.799540979E1,3.860819340E0,8.176275253E0,7.151548862E-1
1.800529697E1,4.083351612E0,8.312665939E0,8.183453679E-1
1.801518411E1,4.392324924E0,8.662017822E0,1.031306505E0
1.802507124E1,4.545465946E0,8.894420624E0,1.225125194E0
1.803495838E1,4.703392029E0,8.973383904E0,1.366600871E0
1.804484552E1,4.787439823E0,9.061918259E0,1.330409408E0
1.805473265E1,4.476073742E0,9.186345100E0,1.409671664E0
1.806461979E1,4.064209461E0,9.116953850E0,1.589133382E0
1.807450692E1,3.645166159E0,8.978169441E0,1.658525229E0
1.808439406E1,3.109174013E0,8.860920906E0,1.814058661E0
1.809428119E1,2.656631231E0,8.808279037E0,1.876272082E0
1.810416833E1,2.421835661E0,8.781958580E0,2.024926186E0
1.811405546E1,2.342872381E0,8.758029938E0,2.082353830E0
1.812394265E1,2.235195398E0,8.702695847E0,1.881057739E0
1.813382979E1,2.232802629E0,8.628518105E0,1.723131418E0
1.814371692E1,2.249552488E0,8.606983185E0,1.663310885E0
1.815360406E1,2.141875267E0,8.611768723E0,1.761416554E0
1.816349119E1,1.938186288E0,8.736495018E0,1.711167336E0
1.817337833E1,1.428515077E0,8.758029938E0,1.471885085E0
1.818326546E1,7.196413875E-1,8.724530220E0,1.438385487E0
1.819315260E1,-2.162513435E-1,8.623732567E0,1.682453394E0
1.820303973E1,-1.183549881E0,8.719446182E0,2.106282234E0
1.821292687E1,-1.564307809E0,8.868100166E0,2.422134638E0
1.822281400E1,-1.106979609E0,8.877671242E0,2.216351986E0
1.823270114E1,-4.319044948E-1,8.753244400E0,2.008176327E0
1.824258833E1,3.008974493E-1,8.568697929E0,1.943570137E0
1.825247546E1,6.622136831E-1,8.420342445E0,2.000998020E0
1.826236260E1,4.803591371E-1,8.281558990E0,2.139781713E0
1.827224973E1,1.211366430E-1,8.173882484E0,2.362314224E0
1.828213687E1,-1.803590059E-1,8.181060791E0,2.362314224E0
1.829202401E1,-5.084748268E-1,8.441878319E0,2.201995134E0
1.830191114E1,-9.323035479E-1,8.724530220E0,2.204387903E0
1.831179828E1,-1.411167145E0,8.911170959E0,2.146960020E0
1.832168541E1,-1.786840320E0,9.035597801E0,2.060818434E0
1.833157255E1,-2.016850471E0,9.028418541E0,1.996212244E0
1.834145968E1,-2.093420744E0,8.865707397E0,1.715952992E0
1.835134682E1,-1.875374794E0,8.633303642E0,1.608275890E0
1.836123400E1,-1.853839397E0,8.472985268E0,1.426421404E0
1.837112114E1,-1.923231244E0,8.549555779E0,1.601097465E0
1.838100828E1,-1.954637051E0,8.681160927E0,1.811665893E0
1.839089541E1,-1.932802439E0,8.736495018E0,1.979462504E0
1.840078255E1,-1.655235052E0,8.954241753E0,2.633002281E0
1.841066968E1,-1.715055585E0,9.332606316E0,3.083152056E0
1.842055682E1,-1.952244163E0,9.605388641E0,3.286541939E0
1.843044395E1,-1.794018745E0,9.823135376E0,3.420539856E0
1.844033109E1,-1.181157112E0,1.014885807E1,3.731905937E0
1.845021822E1,-9.059824944E-1,1.026371384E1,4.050151348E0
1.846010541E1,-1.549950838E0,9.684351921E0,4.529015064E0
1.846999255E1,-2.569891453E0,8.894420624E0,5.228018284E0
1.847987968E1,-3.426821232E0,8.468199730E0,5.362315655E0
1.848976682E1,-3.477070332E0,8.908778191E0,4.794917583E0
1.849965395E1,-2.347059965E0,1.014646530E1,4.023830414E0
1.850954109E1,-1.133300662E0,1.111615658E1,2.680858612E0
1.851942822E1,-3.960121572E-1,1.143200970E1,1.989033818E0
1.852931536E1,-2.569293380E-1,1.132911777E1,1.663310885E0
1.853920250E1,-7.932206988E-1,1.086461163E1,1.586740494E0
1.854908963E1,-1.844268084E0,1.024935627E1,2.072782516E0
1.855897676E1,-2.806781054E0,9.866504669E0,2.278565407E0
1.856886390E1,-3.244966507E0,9.811170578E0,2.146960020E0
1.857875109E1,-3.062813044E0,9.830313683E0,2.070389748E0
1.858863822E1,-2.387737989E0,9.643673897E0,1.653739572E0
1.859852536E1,-1.114158034E0,9.476176262E0,1.383350611E0
1.860841250E1,1.307079345E-1,9.435498238E0,1.079162955E0
1.861829963E1,8.177471161E-1,9.500103951E0,1.043270707E0
1.862818677E1,7.698906660E-1,9.710672379E0,1.345065475E0
1.863807390E1,4.456632212E-2,9.892826080E0,1.560419440E0
1.864796104E1,-5.132604837E-1,9.928718567E0,1.670489311E0
1.865784817E1,-6.927221417E-1,9.815957069E0,1.524527073E0
1.866773536E1,-5.491527915E-1,9.748957634E0,1.483849168E0
1.867762250E1,-1.875374764E-1,9.751350403E0,1.241874933E0
1.868750963E1,1.929213256E-1,9.725028992E0,5.931209326E-1
1.869739676E1,3.607180119E-1,9.703494072E0,9.990034252E-2
1.870728390E1,4.827519655E-1,9.677172661E0,5.922235921E-2
1.871717104E1,3.535395563E-1,9.413962364E0,2.246262282E-1
1.872705817E1,-2.721835673E-2,9.004490852E0,4.064807594E-1
1.873694531E1,-4.319044948E-1,8.676374435E0,4.591228366E-1
1.874683250E1,-5.922235847E-1,8.480163574E0,3.658027649E-1
1.875671963E1,-5.276173949E-1,8.410771370E0,5.021936297E-1
1.876660677E1,-3.385843933E-1,8.606983185E0,7.582256794E-1
1.877649390E1,1.824527234E-2,9.014061928E0,8.039883971E-1
1.878638104E1,2.814557552E-1,9.327820778E0,8.446664214E-1
1.879626817E1,4.013960063E-1,9.351749420E0,1.107876897E0
1.880615531E1,5.186443329E-1,9.140881538E0,1.455135226E0
1.881604244E1,6.693921089E-1,9.033205032E0,1.811665893E0
1.882592958E1,1.059721351E0,9.121739388E0,2.101496458E0
1.883581671E1,1.131505966E0,9.217452049E0,1.849951029E0
1.884570385E1,9.807581902E-1,9.138488770E0,1.708774447E0
1.885559104E1,9.424729943E-1,9.162417412E0,1.572383523E0
1.886547817E1,8.440681696E-1,9.325428009E0,1.388136268E0
1.887536531E1,7.531409264E-1,9.500103951E0,1.445564032E0
1.888525244E1,7.698906660E-1,9.691530228E0,1.376172066E0
1.889513958E1,8.225327730E-1,9.900004387E0,1.251446247E0
1.890502671E1,9.352945685E-1,9.998110771E0,1.261017561E0
1.891491385E1,1.169791222E0,1.001007462E1,1.241874933E0
1.892480098E1,1.377966762E0,9.935896873E0,9.140582681E-1
1.893468812E1,1.593619823E0,9.878469467E0,6.266204119E-1
1.894457531E1,1.761117458E0,9.772886276E0,4.639084935E-1
1.895446244E1,1.854437590E0,9.667601585E0,7.151548862E-1
1.896434958E1,1.993520379E0,9.626923561E0,6.960122585E-1
1.897423671E1,2.184946060E0,9.552745819E0,5.883352757E-1
1.898412385E1,2.311765671E0,9.344570160E0,7.944171429E-1
1.899401098E1,2.266302109E0,9.162417412E0,7.606185079E-1
1.900389812E1,2.096411705E0,9.054739952E0,7.486543655E-1
1.901378526E1,1.897508383E0,8.951848984E0,7.824530005E-1
1.902367239E1,1.799402595E0,8.868100166E0,9.379864931E-1
1.903355958E1,1.890329838E0,8.822636604E0,1.352243900E0
1.904344671E1,2.074876308E0,8.889635086E0,1.711167336E0
1.905333385E1,2.299801588E0,9.026025772E0,1.634596944E0
1.906322098E1,2.407478571E0,9.145667076E0,1.407278776E0
1.907310812E1,2.211267233E0,9.246166229E0,1.308874011E0
1.908299526E1,1.856830359E0,9.452247620E0,9.762716293E-1
1.909288239E1,1.579262972E0,9.483354568E0,6.816553473E-1
1.910276953E1,1.220040441E0,9.250951767E0,7.872386575E-1
1.911265666E1,1.014257669E0,9.112167358E0,8.901300430E-1
1.912254380E1,1.172183990E0,9.198308945E0,1.136590719E0
1.913243098E1,1.265504122E0,9.287142754E0,1.115055323E0
1.914231812E1,1.450050473E0,9.323035240E0,1.098305583E0
1.915220526E1,1.684547186E0,9.270093918E0,1.050449133E0
1.916209239E1,1.933400750E0,9.200701714E0,9.020941257E-1
1.917197953E1,2.244766712E0,9.169595718E0,7.725825906E-1
1.918186666E1,2.553740025E0,9.236594200E0,6.218347549E-1
1.919175380E1,2.812164783E0,9.311071396E0,4.232304990E-1
1.920164093E1,2.931805849E0,9.428318977E0,1.908276081E-1
1.921152812E1,2.783450842E0,9.646066666E0,1.333998591E-1
1.922141526E1,2.522334099E0,9.736993790E0,1.884347796E-1
1.923130239E1,2.218445778E0,9.562317848E0,2.270190418E-1
1.924118953E1,2.117947102E0,9.303893089E0,3.131606579E-1
1.925107666E1,2.161017895E0,9.100203514E0,2.772683203E-1
1.926096380E1,2.311765671E0,8.997312546E0,1.836491376E-1
1.927085093E1,2.589632273E0,9.057132721E0,1.310070455E-1
1.928073807E1,2.730808735E0,9.095417976E0,5.204389244E-2
1.929062520E1,2.836092949E0,8.999705315E0,1.477568001E-1
1.930051239E1,2.757129908E0,8.875278473E0,1.214357466E-1
1.931039953E1,2.790629387E0,8.825029373E0,1.812563092E-1
1.932028666E1,2.919841766E0,8.848957062E0,3.945166469E-1
1.933017380E1,3.221636534E0,8.942276955E0,2.605185509E-1
1.934006093E1,3.547060490E0,8.961420059E0,2.051845491E-1
1.934994807E1,3.867997885E0,9.069096565E0,2.572284266E-2
1.935983520E1,3.956532240E0,9.191130638E0,-2.063809484E-1
1.936972239E1,4.023531437E0,9.315856934E0,-4.603192508E-1
1.937960953E1,4.337290287E0,9.672387123E0,-1.030110121E0
1.938949666E1,4.763212681E0,9.983753204E0,-1.188036442E0
1.939938380E1,5.065007210E0,1.000528908E1,-1.013360381E0
1.940927093E1,5.067399979E0,9.705886841E0,-1.183250785E0
1.941915807E1,4.830510616E0,9.267701149E0,-1.025324464E0
1.942904520E1,4.368396759E0,8.896813393E0,-5.153541565E-1
1.943893234E1,3.927818298E0,8.767601013E0,3.442673683E-1
1.944881953E1,3.700500250E0,8.805886269E0,6.385845542E-1
1.945870666E1,3.980460405E0,9.155238152E0,4.495515525E-1
1.946859380E1,4.516751766E0,9.550353050E0,7.944171429E-1
1.947848093E1,4.856831551E0,9.748957634E0,1.174875975E0
1.948836807E1,4.691427708E0,9.864111900E0,1.445564032E0
1.949825520E1,4.193421841E0,9.844969749E0,1.974676847E0
1.950814234E1,3.722035646E0,9.768099785E0,2.482254505E0
1.951802953E1,3.527917862E0,9.760921478E0,2.585145712E0
1.952791666E1,3.690928936E0,9.686744690E0,2.376671076E0
1.953780380E1,4.234398842E0,9.686744690E0,2.142174482E0
1.954769093E1,4.729712963E0,9.770493507E0,1.799701691E0
1.955757807E1,4.911866665E0,9.796813965E0,1.172483087E0
1.956746520E1,5.026721954E0,9.729815483E0,6.577271223E-1
1.957735234E1,5.105685234E0,9.593423843E0,1.477568001E-1
1.958723947E1,5.045864582E0,9.337391853E0,-5.177469850E-1
1.959712666E1,5.093721390E0,9.059525490E0,-8.838488460E-1
1.960701380E1,5.151148796E0,8.825029373E0,-1.266999602E0
1.961690093E1,5.311468124E0,8.578269005E0,-1.319641709E0
1.962678807E1,5.383552074E0,8.317451477E0,-1.302891970E0
1.963667520E1,5.215754986E0,7.970192909E0,-1.135394335E0
1.964656234E1,5.091328144E0,7.699804306E0,-6.661019921E-1
1.965644947E1,4.820939541E0,7.630412102E0,-7.163512707E-1
1.966633666E1,4.705784798E0,7.709375381E0,-4.603192508E-1
1.967622380E1,4.543072701E0,7.721339703E0,-2.446661144E-1
1.968611093E1,4.351646900E0,7.692625523E0,-2.709871531E-1
1.969599807E1,4.322933197E0,7.762017727E0,-2.063809484E-1
1.970588520E1,4.260719776E0,7.881658554E0,-2.638086975E-1
1.971577234E1,4.354039669E0,8.128119469E0,-2.398804724E-1
1.972565947E1,4.514358997E0,8.233702660E0,-2.452643216E-2
1.973554666E1,4.736891747E0,8.202595711E0,1.836491376E-1
1.974543380E1,4.823332310E0,7.922336578E0,5.404788256E-1
1.975532093E1,4.931009293E0,7.493722439E0,8.446664214E-1
1.976520807E1,5.005186558E0,7.122834682E0,1.091127157E0
1.977509520E1,5.057828903E0,6.902396202E0,1.299302697E0
1.978498234E1,5.194219589E0,6.828218460E0,1.296909928E0
1.979486947E1,5.429015636E0,6.962216377E0,1.076770186E0
1.980475666E1,5.620441437E0,7.266404152E0,9.379864931E-1
1.981464380E1,5.598906040E0,7.551149845E0,9.355936646E-1
1.982453093E1,5.582156181E0,7.958229065E0,8.590233326E-1
1.983441807E1,5.443372250E0,8.286344528E0,9.116654396E-1
1.984430520E1,5.002793789E0,8.394021988E0,8.733802438E-1
1.985419234E1,4.416253090E0,8.434700012E0,8.590233326E-1
1.986407947E1,3.918246984E0,8.532805443E0,8.015955687E-1
1.987396666E1,3.690928936E0,8.688339233E0,6.888338327E-1
1.988385380E1,3.532703638E0,8.772386551E0,7.438687682E-1
1.989374093E1,3.702893019E0,8.915956497E0,9.738788009E-1
1.990362807E1,3.994817495E0,9.073882103E0,9.762716293E-1
1.991351520E1,4.150351048E0,9.054739952E0,1.004985452E0
1.992340234E1,4.133601189E0,8.939884186E0,9.643075466E-1
1.993328947E1,4.083351612E0,8.786744118E0,8.518448472E-1
1.994317666E1,3.985246181E0,8.635697365E0,6.218347549E-1
1.995306380E1,3.949353695E0,8.654839516E0,4.854438901E-1
1.996295093E1,3.779463291E0,9.006883621E0,5.667998791E-1
1.997283807E1,3.231207848E0,9.423533440E0,5.333003402E-1
1.998272520E1,2.455335140E0,9.612566948E0,6.625127792E-1
1.999261234E1,2.048555374E0,9.665208817E0,1.040877819E0
2.000249953E1,2.029412746E0,9.571888924E0,1.095912814E0
2.001238666E1,2.407478571E0,9.284749985E0,7.462615371E-1
2.002227380E1,3.135494947E0,9.066703796E0,3.275175989E-1
2.003216093E1,3.293421268E0,8.889635086E0,3.083750308E-1
2.004204807E1,2.938984394E0,8.827422142E0,5.548357368E-1
2.005193520E1,2.189731836E0,8.844171524E0,9.236295223E-1
2.006182239E1,1.265504122E0,8.925527573E0,1.562812328E0
2.007170953E1,6.430711150E-1,8.975776672E0,1.900499344E0
2.008159666E1,2.599203587E-1,9.059525490E0,1.770987868E0
2.009148380E1,1.642074585E-1,9.219844818E0,1.962712765E0
2.010137093E1,5.653043464E-2,9.088239670E0,1.830808401E0
2.011125807E1,1.522433460E-1,8.825029373E0,9.667003751E-1
2.012114526E1,2.862414122E-1,8.669196129E0,1.299302697E0
2.013103239E1,3.415754437E-1,8.685946465E0,1.376172066E0
2.014091953E1,4.372883439E-1,8.832207680E0,1.177268744E0
2.015080666E1,3.702892959E-1,8.997312546E0,1.562812328E0
2.016069380E1,1.824527234E-2,8.839385986E0,2.106282234E0
2.017058093E1,-2.258226424E-1,8.504091263E0,2.426920414E0
2.018046812E1,-4.486542344E-1,8.281558990E0,2.422134638E0
2.019035526E1,-5.563312769E-1,8.243273735E0,2.472683191E0
2.020024239E1,-4.654040039E-1,8.260024071E0,2.676073074E0
2.021012953E1,-2.835494876E-1,8.480163574E0,2.711965322E0
2.022001666E1,-3.649054468E-1,8.714659691E0,2.491825581E0
2.022990380E1,-5.084748268E-1,8.815457344E0,2.371885538E0
2.023979098E1,-6.687939167E-1,8.786744118E0,2.292922258E0
2.024967812E1,-8.916255236E-1,8.705088615E0,2.391027927E0
2.025956526E1,-1.154836059E0,8.688339233E0,2.393420935E0
2.026945239E1,-1.305583835E0,8.616554260E0,2.460419893E0
2.027933953E1,-1.173978567E0,8.535198212E0,2.352742910E0
2.028922666E1,-7.094719410E-1,8.463413239E0,2.044068813E0
2.029911380E1,7.328019291E-2,8.456234932E0,1.596311808E0
2.030900098E1,5.497509837E-1,8.422736168E0,1.720738530E0
2.031888812E1,4.995017350E-1,8.475378036E0,2.283350945E0
2.032877526E1,1.642074585E-1,8.772386551E0,3.181257725E0
2.033866239E1,-2.721835673E-2,9.217452049E0,3.296113253E0
2.034854953E1,-1.731805354E-1,9.986145973E0,3.279363394E0
2.035843666E1,-9.993025661E-1,1.084068298E1,4.387838364E0
2.036832385E1,-2.653640270E0,1.067079258E1,5.769095421E0
2.037821098E1,-4.219443798E0,9.457033157E0,6.348457813E0
2.038809812E1,-4.796412945E0,8.666803360E0,5.079663277E0
2.039798526E1,-3.881756544E0,9.121739388E0,3.748655796E0
2.040787239E1,-1.851446509E0,1.027567768E1,2.343171597E0
