Time (s),Gyroscope x (deg/s),Gyroscope y (deg/s),Gyroscope z (deg/s)
4.778314200E-2,1.450762302E-1,-8.567132801E-2,1.890572309E-1
5.767022500E-2,1.450762302E-1,-8.567132801E-2,1.890572309E-1
6.755730900E-2,1.212531775E-1,-8.200624585E-2,6.505523622E-2
7.744439200E-2,1.310267299E-1,-6.245913357E-2,6.994201243E-2
8.733147500E-2,1.194206402E-1,-2.336490713E-2,8.704573661E-2
9.721855900E-2,1.365243644E-1,-3.436015919E-2,1.035386100E-1
1.071056940E-1,1.401894391E-1,-3.497100621E-2,1.133121699E-1
1.169927770E-1,1.243074164E-1,-2.764083818E-2,1.310267299E-1
1.268798610E-1,1.108687744E-1,-2.886253223E-2,1.554606259E-1
1.367669440E-1,1.169772521E-1,-5.268557742E-2,1.640124917E-1
1.466540270E-1,1.316375881E-1,-1.094943732E-1,1.371352077E-1
1.565411630E-1,1.236965731E-1,-1.589729935E-1,7.055285573E-2
1.664282460E-1,8.765657991E-2,-1.540862173E-1,1.435491070E-2
1.763153290E-1,7.666133344E-2,-1.840177327E-1,8.246437646E-3
1.862024130E-1,9.315420687E-2,-2.157817930E-1,4.672981426E-2
1.960894960E-1,1.151447073E-1,-2.231119573E-1,7.727217674E-2
2.059766320E-1,1.206423342E-1,-2.053973973E-1,8.460234851E-2
2.158637150E-1,1.139230132E-1,-1.974563748E-1,8.521319181E-2
2.257507980E-1,9.926267713E-2,-2.072299272E-1,9.315420687E-2
2.356378820E-1,8.582404256E-2,-2.102841735E-1,9.254335612E-2
2.455249650E-1,7.849387079E-2,-2.041756958E-1,7.299624383E-2
2.554120480E-1,9.498675168E-2,-2.145601064E-1,2.657185495E-2
2.652991840E-1,1.053711548E-1,-1.681357026E-1,-2.840439789E-2
2.751862670E-1,1.065928489E-1,-1.241547018E-1,-4.306473210E-2
2.850733500E-1,1.133121699E-1,-1.327065676E-1,-2.718270384E-2
2.949604340E-1,1.163664013E-1,-1.247655526E-1,-1.740914769E-2
3.048475170E-1,1.230857223E-1,-1.516428292E-1,-2.168507688E-2
3.147346000E-1,1.346918195E-1,-2.298312783E-1,-5.344913527E-2
3.246217360E-1,1.359135211E-1,-3.067980409E-1,-1.004843712E-1
3.345088190E-1,1.255291104E-1,-4.020902216E-1,-1.414111406E-1
3.443959020E-1,1.096470803E-1,-4.515688419E-1,-1.737860441E-1
3.542830380E-1,8.399149776E-2,-4.515688419E-1,-1.792836636E-1
3.641701210E-1,5.222744122E-2,-4.845545888E-1,-1.322484314E-1
3.740572040E-1,2.962609194E-2,-5.083776116E-1,-7.543963939E-2
3.839442880E-1,1.863084175E-2,-4.753918648E-1,-5.528167635E-2
3.938313710E-1,2.412846684E-2,-4.020902216E-1,-6.077930331E-2
4.037185070E-1,2.779355086E-2,-3.165715933E-1,-7.727217674E-2
4.136055900E-1,2.901524492E-2,-2.304421216E-1,-9.193251282E-2
4.234926730E-1,4.795150831E-2,-1.675248593E-1,-9.376505762E-2
4.333797570E-1,4.611896724E-2,-9.605573118E-2,-1.004843712E-1
4.432668400E-1,3.023693897E-2,4.123218823E-3,-1.218640283E-1
4.531539750E-1,5.833591148E-2,9.758284688E-2,-1.420219839E-1
4.630410590E-1,1.151447073E-1,1.183516532E-1,-1.713426560E-1
4.729281420E-1,1.114796251E-1,2.283041626E-1,-1.841704547E-1
4.828152250E-1,1.065928489E-1,3.003841341E-1,-1.157555580E-1
4.927023610E-1,1.261399537E-1,2.924431264E-1,1.252236869E-2
5.025894440E-1,1.456870735E-1,2.857238054E-1,1.322484314E-1
5.124765270E-1,1.420219839E-1,2.704526186E-1,2.018850148E-1
5.223636110E-1,1.469087601E-1,2.783936262E-1,2.086043358E-1
5.322507460E-1,1.420219839E-1,2.637332976E-1,1.615691036E-1
5.421378290E-1,9.804098308E-2,2.857238054E-1,1.157555580E-1
5.520249130E-1,4.672981426E-2,3.303156495E-1,1.072036922E-1
5.619119960E-1,2.840439789E-2,3.437542915E-1,1.310267299E-1
5.717990790E-1,4.978405312E-2,3.248180151E-1,1.670667231E-1
5.816862150E-1,6.994201243E-2,2.802261710E-1,2.122694254E-1
5.915732980E-1,4.672981426E-2,2.380777150E-1,2.495311052E-1
6.014603820E-1,-3.970507067E-3,2.399102598E-1,2.892361879E-1
6.113475170E-1,-1.924168877E-2,2.649549842E-1,3.436015844E-1
6.212346000E-1,-3.054236295E-4,2.790044844E-1,3.863608837E-1
6.311216840E-1,-3.054236295E-4,3.364241421E-1,3.881934285E-1
6.410087670E-1,-2.657185495E-2,4.592044353E-1,3.472666740E-1
6.508959020E-1,-4.062134400E-2,6.039752364E-1,2.904578745E-1
6.607829860E-1,-3.451287001E-2,7.298861146E-1,2.580829561E-1
6.706700690E-1,-3.145863488E-2,8.361735344E-1,2.788517773E-1
6.805571520E-1,-3.634541109E-2,8.954257369E-1,3.466558158E-1
6.904442880E-1,-4.001049697E-2,8.954257369E-1,4.242334068E-1
7.003313710E-1,-4.489727318E-2,8.661050797E-1,4.737120569E-1
7.102184540E-1,-5.405998230E-2,7.738671303E-1,4.749337435E-1
7.201055380E-1,-5.528167635E-2,6.113054156E-1,4.260659516E-1
7.299926730E-1,-1.740914769E-2,3.413109183E-1,3.093941510E-1
7.398797570E-1,-3.939964995E-2,3.290939629E-1,2.122694254E-1
7.497668400E-1,-7.849387079E-2,4.146125913E-1,1.988307834E-1
7.596539230E-1,-5.100574717E-2,4.854708612E-1,2.641914487E-1
7.695410590E-1,4.856235534E-2,6.076403260E-1,3.387148082E-1
7.794281420E-1,1.505738497E-1,7.085064650E-1,3.900259733E-1
7.893152250E-1,1.915006191E-1,6.962895393E-1,3.979669809E-1
7.992023610E-1,2.012741715E-1,5.496098399E-1,3.784198761E-1
8.090894440E-1,2.110477239E-1,2.881672084E-1,3.576510847E-1
8.189765270E-1,2.379250079E-1,7.177455351E-3,3.448232710E-1
8.288636110E-1,2.788517773E-1,-1.779092699E-1,3.264978528E-1
8.387507460E-1,3.173351586E-1,-2.389939874E-1,3.093941510E-1
8.486378290E-1,3.411581814E-1,-2.225011140E-1,2.855710983E-1
8.585249130E-1,3.662029207E-1,-1.919587553E-1,2.324273884E-1
8.684120480E-1,3.820849657E-1,-1.302631795E-1,1.346918195E-1
8.782991320E-1,3.778090179E-1,-3.252761811E-2,1.374406368E-2
8.881862150E-1,3.600944579E-1,5.238015205E-2,-1.096470803E-1
8.980733500E-1,3.374931216E-1,7.070557028E-2,-2.318165302E-1
9.079604340E-1,3.258870244E-1,-6.306997687E-2,-3.478775024E-1
9.178475170E-1,3.167243004E-1,-3.220692277E-1,-4.425588250E-1
9.277346000E-1,2.709107697E-1,-5.822901726E-1,-5.121954083E-1
9.376217360E-1,1.805053651E-1,-7.814263701E-1,-5.390726924E-1
9.475088190E-1,1.175880954E-1,-8.895463347E-1,-5.305208564E-1
9.573959020E-1,1.072036922E-1,-9.231429100E-1,-5.054761171E-1
9.672830380E-1,1.072036922E-1,-9.103151560E-1,-4.987567961E-1
9.771701210E-1,1.047603041E-1,-8.290724158E-1,-5.292991400E-1
9.870572040E-1,7.421794534E-2,-7.142331600E-1,-5.653391480E-1
9.969443400E-1,-8.246437646E-3,-6.311579347E-1,-6.032116413E-1
1.006831423E0,-1.591257155E-1,-5.633538961E-1,-6.765133142E-1
1.016718507E0,-3.521534503E-1,-4.332434237E-1,-7.644753456E-1
1.026605642E0,-5.555655956E-1,-3.293993771E-1,-8.298360109E-1
1.036492725E0,-7.076665759E-1,-2.805316150E-1,-8.896990418E-1
1.046379809E0,-7.711946368E-1,-2.518217862E-1,-9.429190755E-1
1.056266944E0,-7.663078904E-1,-2.133384049E-1,-9.600228071E-1
1.066154027E0,-7.534800768E-1,-1.119377613E-1,-9.410865307E-1
1.076041111E0,-7.577560544E-1,6.215370819E-2,-9.074136019E-1
1.085928246E0,-7.901309133E-1,2.301367074E-1,-8.921424150E-1
1.095815329E0,-8.622109294E-1,3.559712470E-1,-9.313129783E-1
1.105702413E0,-9.593356252E-1,4.695888162E-1,-1.040654659E0
1.115589548E0,-1.045465112E0,6.394043565E-1,-1.215967774E0
1.125476632E0,-1.085780978E0,8.398386240E-1,-1.432818651E0
1.135363715E0,-1.069898963E0,9.485694170E-1,-1.645393491E0
1.145250850E0,-1.002094984E0,9.369633198E-1,-1.818263173E0
1.155137934E0,-9.135220647E-1,9.290223122E-1,-1.957536340E0
1.165025017E0,-8.609892130E-1,9.290223122E-1,-2.043665886E0
1.174912152E0,-8.634325862E-1,9.039775729E-1,-2.057715416E0
1.184799236E0,-8.805363178E-1,8.312867880E-1,-2.023507833E0
1.194686319E0,-8.872556686E-1,6.956786513E-1,-1.988689661E0
1.204573454E0,-8.670976758E-1,5.221216679E-1,-1.997241497E0
1.214460538E0,-8.121214509E-1,3.895678520E-1,-2.089479446E0
1.224347621E0,-7.882983685E-1,3.254288733E-1,-2.239136934E0
1.234234757E0,-7.968502641E-1,3.242071867E-1,-2.356419563E0
1.244121840E0,-7.889092565E-1,3.394783735E-1,-2.316714525E0
1.254008923E0,-7.094991207E-1,3.651339412E-1,-2.040611506E0
1.263896059E0,-5.745018721E-1,4.573718905E-1,-1.616683602E0
1.273783142E0,-4.932591617E-1,5.770979524E-1,-1.214746118E0
1.283670277E0,-4.682144225E-1,6.607840061E-1,-9.581902623E-1
1.293557361E0,-4.657710493E-1,6.442911625E-1,-8.389987350E-1
1.303444444E0,-4.559974670E-1,4.934118688E-1,-8.096780181E-1
1.313331579E0,-4.120164812E-1,2.649549842E-1,-8.677085042E-1
1.323218663E0,-3.863608837E-1,1.939439960E-2,-9.630770683E-1
1.333105746E0,-3.686463237E-1,-1.950129867E-1,-9.972845316E-1
1.342992882E0,-3.338280320E-1,-3.581092060E-1,-9.214630723E-1
1.352879965E0,-2.983988822E-1,-4.723376334E-1,-7.699729800E-1
1.362767100E0,-2.641914487E-1,-5.419742465E-1,-6.007682681E-1
1.372654184E0,-2.422009408E-1,-5.529694557E-1,-4.382829070E-1
1.382541267E0,-2.128802687E-1,-5.193728805E-1,-2.855710983E-1
1.392428350E0,-1.359135211E-1,-4.876088202E-1,-1.218640283E-1
1.402315486E0,-3.939964995E-2,-4.955498278E-1,5.772506446E-2
1.412202569E0,3.878879920E-2,-5.376983285E-1,2.379250079E-1
1.422089652E0,9.315420687E-2,-6.097782850E-1,3.851391971E-1
1.431976788E0,1.236965731E-1,-7.142331600E-1,4.847072959E-1
1.441863871E0,1.359135211E-1,-8.797727823E-1,5.427377820E-1
1.451751007E0,1.896680743E-1,-1.105175376E0,5.769452453E-1
1.461638090E0,3.509317636E-1,-1.308587551E0,6.679614782E-1
1.471525225E0,5.776324272E-1,-1.339129925E0,9.135220647E-1
1.481412309E0,7.682167888E-1,-1.050199151E0,1.286749721E0
1.491299392E0,8.195279241E-1,-3.562766612E-1,1.584232330E0
1.501186527E0,7.071320415E-1,4.866925478E-1,1.617828965E0
1.511073611E0,6.924717426E-1,9.516236782E-1,1.460841179E0
1.520960694E0,8.757259250E-1,9.363524914E-1,1.254985690E0
1.530847829E0,1.024161816E0,8.147938848E-1,1.032026410E0
1.540734913E0,1.036378741E0,6.969003677E-1,8.212841153E-1
1.550622048E0,8.806126714E-1,3.003841341E-1,6.948387623E-1
1.560509132E0,6.698703766E-1,-2.939702570E-1,6.423059106E-1
1.570396215E0,4.554629922E-1,-8.535063267E-1,5.696150661E-1
1.580283350E0,2.959555089E-1,-1.225512266E0,4.663818777E-1
1.590170434E0,2.831276953E-1,-1.320193648E0,3.814741075E-1
1.600057569E0,3.833066523E-1,-1.172368646E0,3.698680103E-1
1.609944652E0,4.689016342E-1,-1.004996419E0,4.224008918E-1
1.619831736E0,4.701233208E-1,-8.852704167E-1,4.981459379E-1
1.629718871E0,4.041518271E-1,-8.296833038E-1,5.879405141E-1
1.639605954E0,3.338280320E-1,-8.278507590E-1,6.673506498E-1
1.649493090E0,3.112266660E-1,-7.747070193E-1,7.162184119E-1
1.659380173E0,3.148917556E-1,-6.653653979E-1,7.412631512E-1
1.669267257E0,2.947337925E-1,-5.059342384E-1,7.583668828E-1
1.679154392E0,2.452551723E-1,-3.196258247E-1,7.730271816E-1
1.689041475E0,2.092151791E-1,-1.779092699E-1,7.638645172E-1
1.698928611E0,2.257080674E-1,-1.412584335E-1,7.278245091E-1
1.708815694E0,2.886253297E-1,-1.424801201E-1,6.807892919E-1
1.718702777E0,3.649812341E-1,-1.039967462E-1,6.594096422E-1
1.728589913E0,4.023192823E-1,-3.863608837E-2,6.875085831E-1
1.738476996E0,3.857500553E-1,3.527642787E-2,7.601994276E-1
1.748364132E0,3.790307343E-1,9.330692142E-2,8.304468393E-1
1.758251215E0,4.157579243E-1,1.000262350E-1,8.567132950E-1
1.768138298E0,4.438568950E-1,9.147437662E-2,8.170081973E-1
1.778025434E0,4.414134920E-1,8.047912270E-2,7.406523228E-1
1.787912517E0,4.243097901E-1,6.642963737E-2,6.759024858E-1
1.797799600E0,4.230880737E-1,1.206423342E-2,6.520794630E-1
1.807686736E0,4.285857081E-1,-9.361234307E-2,6.673506498E-1
1.817573819E0,4.304182529E-1,-2.035648525E-1,7.082774043E-1
1.827460954E0,4.395809472E-1,-2.915268540E-1,7.492041588E-1
1.837348038E0,4.255314767E-1,-3.623851240E-1,7.711946368E-1
1.847235173E0,4.114819765E-1,-4.210264683E-1,7.699729800E-1
1.857122257E0,4.188121557E-1,-4.576773047E-1,7.583668828E-1
1.867009340E0,4.328616261E-1,-4.534013867E-1,7.553126216E-1
1.876896475E0,4.463002682E-1,-3.959817290E-1,7.809682488E-1
1.886783559E0,4.487436712E-1,-3.306210935E-1,8.341119289E-1
1.896670694E0,4.340833426E-1,-2.683146596E-1,8.878664970E-1
1.906557777E0,4.224772453E-1,-2.145601064E-1,9.171871543E-1
1.916444913E0,4.175904691E-1,-1.907370538E-1,8.970292211E-1
1.926331996E0,3.986541927E-1,-2.023431510E-1,8.371661901E-1
1.936219079E0,3.741439581E-1,-2.334963679E-1,7.705838084E-1
1.946106215E0,3.796415627E-1,-2.860292196E-1,7.180509567E-1
1.955993298E0,4.114819765E-1,-3.513898849E-1,6.942279339E-1
1.965880434E0,4.414134920E-1,-4.118637741E-1,7.064448595E-1
1.975767517E0,4.475219846E-1,-4.546230733E-1,7.522584200E-1
1.985654600E0,4.310291111E-1,-4.851654470E-1,8.194515705E-1
1.995541736E0,4.090386033E-1,-4.998257756E-1,8.872556686E-1
2.005428819E0,4.004867375E-1,-5.132644176E-1,9.355126023E-1
2.015315954E0,4.029301107E-1,-5.083776116E-1,9.538379908E-1
2.025203038E0,3.857500553E-1,-4.613423944E-1,9.410101771E-1
2.035090173E0,3.558185399E-1,-3.703261614E-1,9.006943107E-1
2.044977257E0,3.497100472E-1,-2.725905776E-1,8.451071978E-1
2.054864392E0,3.497100472E-1,-2.053973973E-1,8.005153537E-1
2.064751475E0,3.497100472E-1,-1.406475753E-1,7.803573608E-1
2.074638559E0,3.423798978E-1,-6.612421572E-2,7.944068313E-1
2.084525694E0,3.350497186E-1,-3.817795310E-3,8.426637650E-1
2.094412777E0,3.454341292E-1,6.642963737E-2,9.019159675E-1
2.104299913E0,3.429907262E-1,1.714953631E-1,9.630007148E-1
2.114186996E0,3.075616062E-1,3.022166789E-1,1.032026410E0
2.124074132E0,2.819060087E-1,4.182776511E-1,1.100441337E0
2.133961215E0,2.776300907E-1,4.995203316E-1,1.130372882E0
2.143848350E0,2.794626355E-1,5.838172436E-1,1.104717255E0
2.153735434E0,2.996205688E-1,6.436802745E-1,1.039967418E0
2.163622517E0,3.576510847E-1,6.723901033E-1,9.617789984E-1
2.173509652E0,3.771981895E-1,6.662816405E-1,8.872556686E-1
2.183396736E0,3.869717419E-1,6.369609833E-1,8.328902125E-1
2.193283871E0,4.127036929E-1,5.954233408E-1,8.041804433E-1
2.203170954E0,4.072060585E-1,5.612159371E-1,7.919634581E-1
2.213058090E0,3.484883606E-1,5.013529062E-1,7.785248160E-1
2.222945173E0,2.849602401E-1,3.846810758E-1,7.559235096E-1
2.232832309E0,2.476985604E-1,2.087570578E-1,7.321004272E-1
2.242719392E0,2.379250079E-1,3.344388679E-2,7.180509567E-1
2.252606475E0,2.348707765E-1,-5.512896553E-2,7.272136807E-1
2.262493611E0,2.446443290E-1,-2.458660305E-2,7.718055248E-1
2.272380694E0,2.568612695E-1,7.681404054E-2,8.261709213E-1
2.282267829E0,2.385358512E-1,1.519482583E-1,8.347227573E-1
2.292154913E0,2.049392611E-1,1.415638477E-1,7.522584200E-1
2.302042048E0,2.049392611E-1,3.405473381E-2,5.971031785E-1
2.311929132E0,2.336490750E-1,-1.021642014E-1,4.413371384E-1
2.321816267E0,2.483094037E-1,-2.231119573E-1,3.533751369E-1
2.331703350E0,2.153236568E-1,-2.958027720E-1,3.387148082E-1
2.341590486E0,1.328592747E-1,-3.403946459E-1,3.582619131E-1
2.351477569E0,4.245388508E-2,-4.039227366E-1,3.979669809E-1
2.361364652E0,1.527118147E-3,-5.163186193E-1,4.639385045E-1
2.371251788E0,2.473931387E-2,-6.048914790E-1,5.616740584E-1
2.381138871E0,6.077930331E-2,-5.700731874E-1,6.875085831E-1
2.391026007E0,1.053711548E-1,-3.843756318E-1,8.047912717E-1
2.400913090E0,1.829487532E-1,-1.290414780E-1,8.579349518E-1
2.410800225E0,2.684673667E-1,4.810422286E-2,8.200624585E-1
2.420687309E0,3.252761662E-1,1.305686086E-1,6.807892919E-1
2.430574444E0,3.155026138E-1,2.063136548E-1,4.731011987E-1
2.440461527E0,2.562504113E-1,3.071034551E-1,2.794626355E-1
2.450348663E0,1.915006191E-1,3.474193811E-1,1.200314835E-1
2.460235746E0,1.615691036E-1,2.496838123E-1,-2.718270384E-2
2.470122882E0,1.236965731E-1,2.305948362E-2,-1.414111406E-1
2.480009965E0,6.077930331E-2,-1.992889196E-1,-2.354816198E-1
2.489897048E0,-2.840439789E-2,-3.782671690E-1,-3.148917556E-1
2.499784184E0,-1.432436854E-1,-5.499152541E-1,-3.973561525E-1
2.509671267E0,-2.428117841E-1,-6.922426820E-1,-4.731011987E-1
2.519558402E0,-2.819060087E-1,-7.704311013E-1,-5.097520351E-1
2.529445486E0,-2.977880239E-1,-7.838697433E-1,-5.341859460E-1
2.539332621E0,-3.075616062E-1,-7.099572420E-1,-5.806103349E-1
2.549219704E0,-3.271087110E-1,-5.871769190E-1,-6.673506498E-1
2.559106840E0,-3.710896969E-1,-4.558447599E-1,-7.882983685E-1
2.568993923E0,-4.040754735E-1,-2.976353168E-1,-9.031376839E-1
2.578881059E0,-4.028537571E-1,-1.491994411E-1,-9.942302704E-1
2.588768142E0,-3.845283389E-1,-2.397575416E-2,-1.066310287E0
2.598655277E0,-3.539859951E-1,8.780929446E-2,-1.118843079E0
2.608542361E0,-2.977880239E-1,1.378987730E-1,-1.143887877E0
2.618429496E0,-2.367033064E-1,1.000262350E-1,-1.109069586E0
2.628316579E0,-2.250972092E-1,5.955760833E-3,-1.024161816E0
2.638203663E0,-2.867927849E-1,-5.757235363E-2,-9.642987251E-1
2.648090798E0,-4.016320705E-1,2.901524538E-3,-1.004003882E0
2.657977934E0,-5.219689608E-1,1.501157135E-1,-1.157326460E0
2.667865017E0,-6.203153729E-1,2.380777150E-1,-1.379064083E0
2.677752100E0,-6.966713071E-1,2.649549842E-1,-1.617905378E0
2.687639236E0,-7.724163532E-1,3.315373361E-1,-1.846973062E0
2.697526319E0,-8.677085042E-1,4.842491746E-1,-2.041222572E0
2.707413454E0,-9.434536099E-1,7.262210250E-1,-2.136514664E0
2.717300538E0,-9.526162744E-1,9.925504327E-1,-2.126741171E0
2.727187673E0,-9.177979827E-1,1.204514384E0,-2.088257790E0
2.737074757E0,-9.037485123E-1,1.315688610E0,-2.087036133E0
2.746961892E0,-9.263498783E-1,1.321186304E0,-2.134682178E0
2.756848975E0,-9.770501852E-1,1.228948355E0,-2.230585098E0
2.766736111E0,-1.065012217E0,1.084177494E0,-2.390016317E0
2.776623194E0,-1.172521353E0,9.607864022E-1,-2.634355068E0
2.786510329E0,-1.263537526E0,8.447254300E-1,-2.936113596E0
2.796397413E0,-1.311794519E0,7.066739202E-1,-3.221379280E0
2.806284548E0,-1.305075169E0,5.019637346E-1,-3.360652447E0
2.816171632E0,-1.203674555E0,3.028275371E-1,-3.281242371E0
2.826058767E0,-1.032637239E0,2.368560284E-1,-3.024075747E0
2.835945850E0,-8.469397426E-1,2.875563502E-1,-2.670395136E0
2.845832986E0,-6.899519563E-1,3.773508966E-1,-2.328931570E0
2.855720069E0,-6.013791561E-1,4.292729199E-1,-2.101085424E0
2.865607204E0,-5.946598053E-1,4.164451063E-1,-2.028394699E0
2.875494288E0,-6.105418205E-1,3.486410677E-1,-2.076040745E0
2.885381423E0,-5.983248949E-1,2.447970361E-1,-2.167667866E0
2.895268507E0,-5.561764240E-1,1.482831687E-1,-2.224476576E0
2.905155642E0,-4.883723855E-1,9.330692142E-2,-2.207372904E0
2.915042725E0,-4.010212123E-1,7.681404054E-2,-2.102307081E0
2.924929861E0,-2.935121059E-1,1.097997949E-1,-1.901338458E0
2.934816944E0,-2.073826492E-1,2.301367074E-1,-1.612407684E0
2.944704079E0,-1.536280811E-1,4.078932703E-1,-1.266057253E0
2.954591163E0,-1.334701329E-1,5.245651007E-1,-9.275715351E-1
2.964478298E0,-1.383569092E-1,5.367820263E-1,-6.710157394E-1
2.974365382E0,-1.408002973E-1,4.769189954E-1,-5.262449384E-1
2.984252517E0,-1.120904684E-1,3.895678520E-1,-4.755446017E-1
2.994139600E0,-4.245388508E-2,3.150444627E-1,-5.018110275E-1
3.004026736E0,1.557660475E-2,2.441861928E-1,-5.622848868E-1
3.013913819E0,6.444438547E-2,1.800472289E-1,-6.038225293E-1
3.023800954E0,1.029277667E-1,1.305686086E-1,-5.848862529E-1
3.033688038E0,9.926267713E-2,1.097997949E-1,-4.926483035E-1
3.043575173E0,4.672981426E-2,8.047912270E-2,-3.423798978E-1
3.053462257E0,-1.740914769E-2,1.572931744E-2,-1.841704547E-1
3.063349392E0,-5.650337040E-2,-1.455343664E-1,-6.627693027E-2
3.073236475E0,-5.283828825E-2,-3.837648034E-1,-1.527118147E-3
3.083123611E0,4.978405312E-2,-6.097782850E-1,3.817795217E-2
3.093010694E0,2.562504113E-1,-7.740961909E-1,1.114796251E-1
3.102897829E0,4.646256864E-1,-8.357917666E-1,2.476985604E-1
3.112784913E0,5.800758004E-1,-7.936432958E-1,3.973561525E-1
3.122672048E0,6.307761669E-1,-6.916317940E-1,4.822639227E-1
3.132559132E0,5.922927856E-1,-5.822901726E-1,4.694361091E-1
3.142446267E0,4.841728210E-1,-4.631749392E-1,4.089622498E-1
3.152333350E0,4.395809472E-1,-3.733803928E-1,4.028537571E-1
3.162220486E0,5.360948443E-1,-2.933593988E-1,5.066977739E-1
3.172107569E0,6.436039209E-1,-1.424801201E-1,6.642963886E-1
3.181994704E0,6.765896678E-1,3.100049868E-2,7.809682488E-1
3.191881788E0,6.521558166E-1,1.360662282E-1,8.139539957E-1
3.201768923E0,5.403707623E-1,1.446180940E-1,7.785248160E-1
3.211656007E0,3.613161445E-1,9.391776472E-2,7.088882327E-1
3.221543142E0,1.866138428E-1,3.405473381E-2,6.239804626E-1
3.231430225E0,9.376505762E-2,3.512371797E-3,5.341859460E-1
3.241317361E0,7.543963939E-2,1.817270555E-2,4.694361091E-1
3.251204444E0,8.399149776E-2,9.636115283E-2,4.590517282E-1
3.261091579E0,9.987352788E-2,2.203631550E-1,5.054761171E-1
3.270978663E0,1.139230132E-1,3.400892019E-1,5.946598053E-1
3.280865798E0,1.157555580E-1,4.341596961E-1,7.064448595E-1
3.290752934E0,1.102579311E-1,5.031854510E-1,8.249492049E-1
3.300640017E0,1.041494608E-1,5.520532131E-1,9.391776323E-1
3.310527100E0,9.315420687E-2,6.051968932E-1,1.042410851E0
3.320414236E0,8.032641560E-2,6.717792749E-1,1.130983710E0
3.330301319E0,9.681928903E-2,7.237776518E-1,1.214058876E0
3.340188454E0,1.542389393E-1,7.249993682E-1,1.294690728E0
3.350075538E0,2.367033064E-1,6.809419990E-1,1.325843930E0
3.359962673E0,3.063398898E-1,5.868715048E-1,1.255596519E0
3.369849809E0,3.356605768E-1,4.372139275E-1,1.097997904E0
3.379736892E0,3.313846290E-1,2.203631550E-1,9.294040799E-1
3.389624027E0,2.843494117E-1,-2.886253223E-2,8.194515705E-1
3.399511111E0,2.153236568E-1,-2.506000996E-1,7.876875401E-1
3.409398246E0,1.670667231E-1,-4.472928941E-1,8.176190853E-1
3.419285329E0,1.524063945E-1,-6.262711287E-1,8.787037730E-1
3.429172465E0,1.640124917E-1,-7.710419297E-1,9.306257963E-1
3.439059548E0,1.969982386E-1,-8.516737819E-1,9.397885203E-1
3.448946684E0,2.696890533E-1,-8.742751479E-1,8.799254894E-1
3.458833767E0,3.319954872E-1,-8.883246183E-1,7.864658237E-1
3.468720902E0,3.472666740E-1,-8.785510659E-1,7.162184119E-1
3.478607986E0,3.417690396E-1,-8.119687438E-1,6.936170459E-1
3.488495121E0,3.313846290E-1,-7.166765332E-1,7.143858671E-1
3.498382204E0,3.271087110E-1,-5.816792846E-1,7.394306064E-1
3.508269340E0,3.124483824E-1,-4.167505503E-1,7.369872332E-1
3.518156423E0,3.008422852E-1,-2.640387416E-1,7.052231431E-1
3.528043559E0,3.051182032E-1,-1.528645307E-1,6.667397618E-1
3.537930642E0,3.136700690E-1,-7.162184268E-2,6.441384554E-1
3.547817777E0,3.075616062E-1,-1.542389300E-2,6.429167390E-1
3.557704861E0,2.727433145E-1,3.771981969E-2,6.313106418E-1
3.567591996E0,2.232646793E-1,7.681404054E-2,5.989357233E-1
3.577479132E0,1.915006191E-1,6.826218218E-2,5.586197972E-1
3.587366215E0,1.719534993E-1,3.894151375E-2,5.244123936E-1
3.597253350E0,1.615691036E-1,9.009997360E-3,5.073086619E-1
3.607140434E0,1.572931707E-1,-3.069507517E-2,5.030327439E-1
3.617027569E0,1.444653720E-1,-8.567132801E-2,5.109737515E-1
3.626914652E0,1.432436854E-1,-1.467560530E-1,5.146388412E-1
3.636801788E0,1.414111406E-1,-1.882936656E-1,4.938700199E-1
3.646688871E0,1.224748790E-1,-2.084516287E-1,4.541649222E-1
3.656576007E0,1.218640283E-1,-2.347180545E-1,4.144598544E-1
3.666463090E0,1.359135211E-1,-2.860292196E-1,3.912476599E-1
3.676350225E0,1.255291104E-1,-3.403946459E-1,3.918585181E-1
3.686237309E0,1.029277667E-1,-3.672719002E-1,4.120164812E-1
3.696124444E0,9.559759498E-2,-3.764346242E-1,4.529432356E-1
3.706011527E0,1.120904684E-1,-3.807105422E-1,5.085303187E-1
3.715898663E0,1.304158866E-1,-3.550549746E-1,5.659499764E-1
3.725785798E0,1.365243644E-1,-2.945810854E-1,6.074876189E-1
3.735672882E0,1.426328421E-1,-2.249445021E-1,6.294780970E-1
3.745560017E0,1.408002973E-1,-1.760767251E-1,6.484143734E-1
3.755447100E0,1.408002973E-1,-1.473668963E-1,6.759024858E-1
3.765334236E0,1.542389393E-1,-1.259872466E-1,7.131641507E-1
3.775221319E0,1.658450365E-1,-9.055810422E-2,7.620319724E-1
3.785108454E0,1.572931707E-1,-3.802524135E-2,8.182299137E-1
3.794995538E0,1.420219839E-1,8.399149403E-3,8.701519370E-1
3.804882673E0,1.401894391E-1,2.489202656E-2,9.080244303E-1
3.814769757E0,1.469087601E-1,5.176930502E-2,9.287932515E-1
3.824656892E0,1.505738497E-1,1.091889441E-1,9.562813640E-1
3.834544027E0,1.627907902E-1,2.081461996E-1,9.984298348E-1
3.844431111E0,1.872246861E-1,3.235963285E-1,1.017976999E0
3.854318246E0,2.049392611E-1,3.981196880E-1,9.917105436E-1
3.864205329E0,2.244863659E-1,4.262186885E-1,9.385668039E-1
3.874092465E0,2.318165302E-1,4.182776511E-1,8.848122358E-1
3.883979548E0,2.073826492E-1,3.932329118E-1,8.438854814E-1
3.893866684E0,1.774511337E-1,3.761292100E-1,8.298360109E-1
3.903753767E0,1.548497826E-1,3.816268146E-1,8.335011005E-1
3.913640902E0,1.157555580E-1,3.742966652E-1,8.359444737E-1
3.923527986E0,7.727217674E-2,3.333698809E-1,8.218950033E-1
3.933415121E0,4.123219103E-2,2.551814318E-1,7.937960029E-1
3.943302257E0,1.557660475E-2,1.250709742E-1,7.656970620E-1
3.953189340E0,3.970507067E-3,-1.374406274E-3,7.485933304E-1
3.963076475E0,3.054236295E-4,-9.727742523E-2,7.449282408E-1
3.972963559E0,-1.863084175E-2,-1.785201132E-1,7.601994276E-1
3.982850694E0,-5.222744122E-2,-1.998997629E-1,7.986828089E-1
3.992737777E0,-7.055285573E-2,-1.742441803E-1,8.493831158E-1
4.002624913E0,-6.749862432E-2,-1.571404636E-1,8.958075047E-1
4.012512048E0,-9.009996802E-2,-1.565296054E-1,9.281824231E-1
4.022399132E0,-1.579040140E-1,-1.650814712E-1,9.184088707E-1
4.032286267E0,-2.226538211E-1,-2.347180545E-1,8.469397426E-1
4.042173350E0,-2.342599183E-1,-3.691044450E-1,7.284353375E-1
4.052060486E0,-2.336490750E-1,-5.205945969E-1,6.129852533E-1
4.061947569E0,-2.483094037E-1,-6.433748603E-1,5.470137000E-1
4.071834704E0,-2.476985604E-1,-7.478297353E-1,5.323534012E-1
4.081721788E0,-2.446443290E-1,-8.473978639E-1,5.573981404E-1
4.091608923E0,-2.776300907E-1,-9.842276573E-1,6.227588058E-1
4.101496059E0,-3.155026138E-1,-1.149767280E0,7.180509567E-1
4.111383142E0,-3.393256664E-1,-1.249946237E0,8.328902125E-1
4.121270277E0,-3.607053161E-1,-1.254832983E0,9.379559755E-1
4.131157361E0,-3.735330999E-1,-1.208408594E0,9.917105436E-1
4.141044496E0,-3.515425920E-1,-1.133274436E0,9.611681700E-1
4.150931579E0,-3.222219348E-1,-1.044090629E0,8.622109294E-1
4.160818715E0,-3.148917556E-1,-9.304730892E-1,7.510367036E-1
4.170705850E0,-3.100049794E-1,-7.563816309E-1,6.636855602E-1
4.180592934E0,-2.849602401E-1,-5.761816502E-1,6.056550741E-1
4.190480069E0,-2.238755226E-1,-4.479037523E-1,5.445703268E-1
4.200367152E0,-1.444653720E-1,-3.825430870E-1,4.761554301E-1
4.210254288E0,-6.749862432E-2,-3.636068404E-1,4.327852726E-1
4.220141423E0,3.970507067E-3,-3.367295563E-1,4.504998624E-1
4.230028507E0,8.521319181E-2,-2.774773538E-1,5.097520351E-1
4.239915590E0,1.768402755E-1,-1.998997629E-1,5.494571328E-1
4.249802725E0,2.379250079E-1,-1.211004704E-1,5.238015056E-1
4.259689861E0,2.470877171E-1,-4.535540938E-2,4.242334068E-1
4.269576944E0,2.257080674E-1,1.267508045E-2,2.678565085E-1
4.279464079E0,1.774511337E-1,5.726693198E-2,9.926267713E-2
4.289351163E0,1.420219839E-1,1.201841980E-1,-4.184303805E-2
4.299238298E0,1.475196183E-1,2.386885732E-1,-1.383569092E-1
4.309125434E0,1.701209545E-1,3.901786804E-1,-1.896680743E-1
4.319012517E0,2.012741715E-1,5.483881235E-1,-1.988307834E-1
4.328899652E0,2.379250079E-1,6.852179170E-1,-1.719534993E-1
4.338786736E0,2.684673667E-1,7.695912123E-1,-1.365243644E-1
4.348673871E0,3.093941510E-1,8.178481460E-1,-1.389677525E-1
4.358560954E0,3.692571819E-1,8.465579152E-1,-1.951656938E-1
4.368448090E0,4.334724844E-1,8.367843628E-1,-2.867927849E-1
4.378335225E0,4.517979026E-1,8.086854219E-1,-3.943018913E-1
4.388222309E0,3.962107897E-1,8.679376245E-1,-4.969242513E-1
4.398109444E0,3.118375242E-1,9.791117907E-1,-5.897729993E-1
4.407996527E0,2.611372173E-1,1.086010098E0,-6.997255087E-1
4.417883663E0,2.360924631E-1,1.138542891E0,-8.353336453E-1
4.427770798E0,2.159345001E-1,1.144651413E0,-9.661312699E-1
4.437657882E0,2.067717910E-1,1.123882651E0,-1.052260756E0
4.447545017E0,2.061609477E-1,1.085399270E0,-1.074251294E0
4.457432100E0,2.232646793E-1,1.051191807E0,-1.057147503E0
4.467319236E0,2.483094037E-1,9.980480671E-1,-1.066310287E0
4.477206371E0,2.654131353E-1,8.972582817E-1,-1.154272199E0
4.487093454E0,2.556395829E-1,7.500441074E-1,-1.326531172E0
4.496980590E0,2.159345001E-1,5.758762360E-1,-1.567204952E0
4.506867673E0,1.432436854E-1,4.653128982E-1,-1.844529629E0
4.516754809E0,4.917320609E-2,4.653128982E-1,-2.086425066E0
4.526641944E0,-4.734066129E-2,5.294518471E-1,-2.236082792E0
4.536529027E0,-1.420219839E-1,6.229115129E-1,-2.303276062E0
4.546416163E0,-2.189887464E-1,7.225559354E-1,-2.295945883E0
4.556303246E0,-2.495311052E-1,7.897491455E-1,-2.214092255E0
4.566190382E0,-2.354816198E-1,7.970793247E-1,-2.077262402E0
4.576077517E0,-2.024958730E-1,7.274427414E-1,-1.941654325E0
4.585964600E0,-1.908897758E-1,6.131379604E-1,-1.862855077E0
4.595851736E0,-2.281514555E-1,4.585935771E-1,-1.883013010E0
4.605738819E0,-2.965663373E-1,3.174878657E-1,-2.020453691E0
4.615625954E0,-3.655920923E-1,2.319692522E-1,-2.243412971E0
4.625513038E0,-4.553866386E-1,2.203631550E-1,-2.528678656E0
4.635400173E0,-5.830537081E-1,2.887780368E-1,-2.835934639E0
4.645287309E0,-7.198835015E-1,3.779617548E-1,-3.030795097E0
4.655174392E0,-7.962393761E-1,4.549284875E-1,-2.989868164E0
4.665061527E0,-7.608102560E-1,5.343386531E-1,-2.747972727E0
4.674948663E0,-6.630746722E-1,5.893148780E-1,-2.413839340E0
4.684835746E0,-5.573981404E-1,6.161921620E-1,-2.099252939E0
4.694722882E0,-4.694361091E-1,5.929799676E-1,-1.893397450E0
4.704609965E0,-4.187358022E-1,4.860817194E-1,-1.814598083E0
4.714497100E0,-4.059080184E-1,3.504736125E-1,-1.843918800E0
4.724384236E0,-4.248442650E-1,2.325800955E-1,-1.939821839E0
4.734271319E0,-4.517215490E-1,1.598892659E-1,-2.055271864E0
4.744158454E0,-4.767662883E-1,1.140757278E-1,-2.172554731E0
4.754045538E0,-4.993676245E-1,9.513945878E-2,-2.275787830E0
4.763932673E0,-5.146388412E-1,7.864658535E-2,-2.294723988E0
4.773819809E0,-5.097520351E-1,8.903098851E-2,-2.139568806E0
4.783706892E0,-4.792096615E-1,1.959292591E-1,-1.856135726E0
4.793594027E0,-4.297310412E-1,3.486410677E-1,-1.547657847E0
4.803481163E0,-3.729222417E-1,4.140017331E-1,-1.299653888E0
4.813368246E0,-3.179459870E-1,3.804051280E-1,-1.157326460E0
4.823255382E0,-2.812951505E-1,2.747285664E-1,-1.098074317E0
4.833142465E0,-2.544178963E-1,1.232384369E-1,-1.062034369E0
4.843029600E0,-2.189887464E-1,-3.206948051E-3,-9.997279048E-1
4.852916736E0,-1.707318127E-1,-8.383878320E-2,-8.921424150E-1
4.862803819E0,-1.230857223E-1,-1.412584335E-1,-7.388197780E-1
4.872690954E0,-9.681928903E-2,-1.766875684E-1,-5.299099684E-1
4.882578038E0,-7.421794534E-2,-1.522536725E-1,-2.855710983E-1
4.892465173E0,-5.100574717E-2,-9.849911928E-2,-6.810946763E-2
4.902352309E0,-5.161659420E-2,-7.223268598E-2,6.383354217E-2
4.912239392E0,-5.039490014E-2,-6.856760383E-2,8.460234851E-2
4.922126527E0,-2.412846684E-2,-1.149920002E-1,4.795150831E-2
4.932013663E0,7.024743594E-3,-1.876828223E-1,1.557660475E-2
4.941900746E0,3.023693897E-2,-2.628170252E-1,2.535016090E-2
4.951787882E0,5.405998230E-2,-3.440597057E-1,7.849387079E-2
4.961674965E0,8.704573661E-2,-4.253024161E-1,1.359135211E-1
4.971562100E0,1.212531775E-1,-4.924955964E-1,1.743968874E-1
4.981449236E0,1.505738497E-1,-5.981721878E-1,1.957765520E-1
4.991336319E0,2.153236568E-1,-7.185090780E-1,1.847812980E-1
5.001223454E0,2.953446507E-1,-8.058602214E-1,1.310267299E-1
5.011110590E0,3.130592108E-1,-8.150229454E-1,4.367557913E-2
5.020997673E0,2.721324563E-1,-6.763606071E-1,-7.360709459E-2
5.030884809E0,2.538070381E-1,-3.886515796E-1,-1.591257155E-1
5.040771892E0,2.831276953E-1,-9.239064902E-2,-8.704573661E-2
5.050659027E0,3.381039500E-1,1.415638477E-1,1.524063945E-1
5.060546163E0,3.937674165E-1,2.954973578E-1,4.162923992E-1
5.070433246E0,4.053735137E-1,3.284831047E-1,5.806103349E-1
5.080320382E0,3.680354655E-1,2.576248348E-1,6.166502833E-1
5.090207517E0,3.063398898E-1,1.403421611E-1,5.751127005E-1
5.100094600E0,2.519744933E-1,3.344388679E-2,5.378510356E-1
5.109981736E0,2.513636351E-1,-6.872031838E-3,5.470137000E-1
5.119868819E0,2.977880239E-1,2.061609551E-2,5.934380889E-1
5.129755954E0,3.387148082E-1,6.704048812E-2,6.368082762E-1
5.139643090E0,3.600944579E-1,7.437065244E-2,6.539120078E-1
5.149530173E0,3.448232710E-1,-1.420219894E-2,6.942279339E-1
5.159417309E0,3.100049794E-1,-5.085303262E-2,7.595885396E-1
5.169304444E0,2.605263591E-1,-2.947338112E-2,8.438854814E-1
5.179191527E0,2.226538211E-1,7.177455351E-3,9.636115432E-1
5.189078663E0,2.189887464E-1,4.627167806E-2,1.111436605E0
5.198965798E0,2.269297540E-1,3.833066672E-2,1.256818295E0
5.208852882E0,2.385358512E-1,-2.336490713E-2,1.349056125E0
5.218740017E0,2.593046725E-1,-1.272089481E-1,1.360662222E0
5.228627100E0,2.757975459E-1,-2.481566966E-1,1.327676535E0
5.238514236E0,2.757975459E-1,-3.379512429E-1,1.308740258E0
5.248401371E0,3.075616062E-1,-3.556658030E-1,1.335617542E0
5.258288454E0,3.442124426E-1,-3.171824515E-1,1.401589036E0
5.268175590E0,3.907131851E-1,-2.090624720E-1,1.459619522E0
5.278062725E0,4.389701188E-1,-1.217113137E-1,1.461452127E0
5.287949809E0,4.585172236E-1,-1.223221645E-1,1.374711752E0
5.297836944E0,4.450785816E-1,-1.705790907E-1,1.221999884E0
5.307724079E0,4.120928347E-1,-2.261662036E-1,1.061957955E0
5.317611163E0,3.796415627E-1,-2.817533016E-1,9.367342591E-1
5.327498298E0,3.484883606E-1,-3.355078697E-1,8.493831158E-1
5.337385382E0,3.191677034E-1,-3.587200642E-1,7.809682488E-1
5.347272517E0,3.197785318E-1,-3.929274976E-1,7.198835015E-1
5.357159652E0,3.484883606E-1,-4.240806997E-1,6.679614782E-1
5.367046736E0,3.845283389E-1,-4.002576768E-1,6.123743653E-1
5.376933871E0,4.072060585E-1,-3.593308926E-1,5.464028716E-1
5.386821007E0,4.035409689E-1,-2.927485406E-1,4.749337435E-1
5.396708090E0,3.765873313E-1,-1.895153672E-1,4.199574888E-1
5.406595225E0,3.570402265E-1,-1.204896197E-1,3.888042867E-1
5.416482361E0,3.423798978E-1,-1.003316641E-1,3.759764731E-1
5.426369444E0,2.904578745E-1,-1.021642014E-1,3.991886973E-1
5.436256579E0,2.312056869E-1,-1.052184403E-1,4.553866386E-1
5.446143715E0,2.281514555E-1,-8.811471611E-2,5.262449384E-1
5.456030798E0,2.721324563E-1,-5.818320066E-2,6.026008129E-1
5.465917934E0,3.228327632E-1,1.634016447E-2,6.801784039E-1
5.475805017E0,3.228327632E-1,1.226275861E-1,7.479824424E-1
5.485692152E0,2.794626355E-1,1.959292591E-1,7.821899056E-1
5.495579288E0,2.434226274E-1,2.270824611E-1,7.595885396E-1
5.505466371E0,2.226538211E-1,2.557922900E-1,6.868977547E-1
5.515353507E0,2.195995897E-1,3.260397315E-1,6.209262609E-1
5.525240642E0,2.195995897E-1,4.500417113E-1,6.111527085E-1
5.535127725E0,2.299840003E-1,5.532749295E-1,6.771242023E-1
5.545014861E0,2.550287247E-1,6.381826997E-1,7.724163532E-1
5.554901996E0,2.721324563E-1,7.237776518E-1,8.170081973E-1
5.564789079E0,2.586938143E-1,7.433247566E-1,8.011261821E-1
5.574676215E0,2.232646793E-1,6.583406329E-1,7.455390692E-1
5.584563350E0,1.872246861E-1,5.270084739E-1,6.685723066E-1
5.594450434E0,1.627907902E-1,3.651339412E-1,6.142069101E-1
5.604337569E0,1.719534993E-1,2.179197669E-1,6.062659025E-1
5.614224704E0,1.866138428E-1,1.476723254E-1,6.172611713E-1
5.624111788E0,1.866138428E-1,1.342336833E-1,6.123743653E-1
5.633998923E0,1.701209545E-1,1.342336833E-1,5.854970813E-1
5.643886059E0,1.340809762E-1,1.061347127E-1,5.549547076E-1
5.653773142E0,1.151447073E-1,3.100049868E-2,5.347967744E-1
5.663660277E0,1.383569092E-1,-6.673506647E-2,5.262449384E-1
5.673547361E0,1.548497826E-1,-1.730224788E-1,5.347967744E-1
5.683434496E0,1.408002973E-1,-2.518217862E-1,5.598415136E-1
5.693321632E0,1.120904684E-1,-3.086305857E-1,5.971031785E-1
5.703208715E0,9.559759498E-2,-3.562766612E-1,6.398624778E-1
5.713095850E0,8.460234851E-2,-3.623851240E-1,6.801784039E-1
5.722982986E0,8.643488586E-2,-3.520007432E-1,7.137750387E-1
5.732870069E0,1.072036922E-1,-3.526115716E-1,7.406523228E-1
5.742757204E0,1.310267299E-1,-3.452814221E-1,7.687512636E-1
5.752644340E0,1.334701329E-1,-3.135173619E-1,8.225058317E-1
5.762531423E0,1.065928489E-1,-2.420482337E-1,9.202414155E-1
5.772418559E0,9.926267713E-2,-1.235438585E-1,1.036913276E0
5.782305694E0,9.559759498E-2,-2.764083818E-2,1.148087382E0
5.792192777E0,6.261184067E-2,3.833066672E-2,1.264148355E0
5.802079913E0,4.856235534E-2,8.414421231E-2,1.349056125E0
5.811967048E0,6.810946763E-2,7.070557028E-2,1.403421521E0
5.821854132E0,7.543963939E-2,3.161134571E-2,1.443126678E0
5.831741267E0,3.634541109E-2,-2.214321308E-2,1.479166627E0
5.841628402E0,-6.413896102E-3,-7.834116369E-2,1.482220888E0
5.851515486E0,-1.313321572E-2,-1.375933439E-1,1.437018156E0
5.861402621E0,-2.535016090E-2,-1.779092699E-1,1.344169378E0
5.871289757E0,-1.985253580E-2,-1.797417998E-1,1.189014196E0
5.881176840E0,2.748812549E-3,-1.644706279E-1,9.996515512E-1
5.891063975E0,3.390202299E-2,-1.528645307E-1,8.426637650E-1
5.900951111E0,5.100574717E-2,-1.559187621E-1,7.711946368E-1
5.910838194E0,5.283828825E-2,-1.369825006E-1,7.650861740E-1
5.920725329E0,4.734066129E-2,-8.078455180E-2,7.925743461E-1
5.930612465E0,5.589252338E-2,-2.031067200E-2,8.017370105E-1
5.940499548E0,7.849387079E-2,6.215370819E-2,7.699729800E-1
5.950386684E0,1.084253863E-1,1.818797737E-1,7.174401283E-1
5.960273819E0,1.267508119E-1,2.991624475E-1,6.826218367E-1
5.970160902E0,1.108687744E-1,4.097257853E-1,6.777350307E-1
5.980048038E0,8.704573661E-2,5.392253995E-1,6.759024858E-1
5.989935173E0,9.681928903E-2,6.766660213E-1,6.704048514E-1
5.999822257E0,1.371352077E-1,8.172372580E-1,6.539120078E-1
6.009709392E0,1.652341783E-1,9.003124833E-1,6.423059106E-1
6.019596527E0,1.175880954E-1,8.679376245E-1,6.435275674E-1
6.029483611E0,1.740914769E-2,6.699467301E-1,6.435275674E-1
6.039370746E0,-4.245388508E-2,3.785725832E-1,5.897729993E-1
6.049257882E0,-4.489727318E-2,7.803573459E-2,4.627167881E-1
6.059144965E0,-5.283828825E-2,-2.200577259E-1,3.179459870E-1
6.069032100E0,-1.175880954E-1,-4.558447599E-1,2.281514555E-1
6.078919236E0,-2.073826492E-1,-5.993938446E-1,2.122694254E-1
6.088806319E0,-2.696890533E-1,-6.665870547E-1,2.299840003E-1
6.098693454E0,-3.087832928E-1,-6.745280623E-1,2.599155009E-1
6.108580590E0,-3.326063454E-1,-6.177192926E-1,3.148917556E-1
6.118467673E0,-3.374931216E-1,-5.474718809E-1,3.826957941E-1
6.128354809E0,-3.252761662E-1,-5.431959033E-1,4.266768098E-1
6.138241944E0,-3.020639718E-1,-6.250494719E-1,4.150707126E-1
6.148129027E0,-3.026748300E-1,-7.227849960E-1,3.668137789E-1
6.158016163E0,-3.271087110E-1,-7.313368917E-1,3.784198761E-1
6.167903298E0,-3.374931216E-1,-6.183301210E-1,5.005893111E-1
6.177790382E0,-3.161134422E-1,-4.411844313E-1,6.484143734E-1
6.187677517E0,-2.745758295E-1,-2.811424434E-1,7.314895988E-1
6.197564652E0,-2.336490750E-1,-1.907370538E-1,7.742488980E-1
6.207451736E0,-1.908897758E-1,-1.113269106E-1,8.170081973E-1
6.217338871E0,-1.499630064E-1,-1.053711493E-2,8.597674966E-1
6.227226007E0,-1.212531775E-1,6.642963737E-2,8.872556686E-1
6.237113090E0,-1.108687744E-1,8.780929446E-2,8.951966763E-1
6.247000225E0,-1.175880954E-1,8.047912270E-2,8.585458398E-1
6.256887361E0,-1.371352077E-1,3.833066672E-2,7.632536292E-1
6.266774444E0,-1.682884246E-1,-1.969982497E-2,6.276455522E-1
6.276661579E0,-1.915006191E-1,-7.467607409E-2,4.731011987E-1
6.286548715E0,-1.963873953E-1,-1.027750522E-1,3.069507480E-1
6.296435850E0,-2.012741715E-1,-1.021642014E-1,1.566823274E-1
6.306322934E0,-1.933331639E-1,-1.168245375E-1,6.383354217E-2
6.316210069E0,-1.591257155E-1,-1.369825006E-1,3.573456407E-2
6.326097204E0,-1.108687744E-1,-1.461452097E-1,2.840439789E-2
6.335984288E0,-4.672981426E-2,-1.644706279E-1,9.468132630E-3
6.345871423E0,-9.162708884E-4,-1.986780763E-1,-3.145863488E-2
6.355758559E0,3.512371704E-2,-2.273878902E-1,-9.132166207E-2
6.365645642E0,6.933116168E-2,-2.426590770E-1,-1.603474021E-1
6.375532777E0,9.865183383E-2,-2.377723008E-1,-2.104368806E-1
6.385419913E0,1.322484314E-1,-2.194468826E-1,-2.446443290E-1
6.395306996E0,1.756185889E-1,-2.108950168E-1,-3.234436214E-1
6.405194132E0,2.079934925E-1,-2.011214644E-1,-4.767662883E-1
6.415081267E0,2.342599183E-1,-1.870719790E-1,-6.649072170E-1
6.424968350E0,2.373141646E-1,-1.272089481E-1,-7.840224504E-1
6.434855486E0,2.018850148E-1,2.672456764E-2,-7.711946368E-1
6.444742621E0,1.609582454E-1,2.276933193E-1,-6.917845011E-1
6.454629757E0,1.469087601E-1,4.085040987E-1,-6.667397618E-1
6.464516840E0,1.426328421E-1,4.989095032E-1,-7.760814428E-1
6.474403975E0,1.078145429E-1,4.909684956E-1,-9.991170764E-1
6.484291111E0,2.351761982E-2,4.408790171E-1,-1.247120976E0
6.494178194E0,-8.215895295E-2,4.311054647E-1,-1.490238190E0
6.504065329E0,-1.743968874E-1,4.928010404E-1,-1.735798836E0
6.513952465E0,-2.556395829E-1,6.039752364E-1,-1.958147287E0
6.523839548E0,-3.142809272E-1,7.152257562E-1,-2.144455671E0
6.533726684E0,-3.600944579E-1,7.512657642E-1,-2.284339666E0
6.543613819E0,-3.955236077E-1,7.396596670E-1,-2.350311279E0
6.553500902E0,-4.407263100E-1,7.201125622E-1,-2.335650921E0
6.563388038E0,-5.115845799E-1,6.895701885E-1,-2.235471964E0
6.573275173E0,-5.891621709E-1,6.467345357E-1,-2.098642111E0
6.583162309E0,-6.441384554E-1,5.844281316E-1,-2.029005527E0
6.593049392E0,-6.777350307E-1,4.701996744E-1,-2.084592581E0
6.602936527E0,-6.960604787E-1,3.394783735E-1,-2.256240606E0
6.612823663E0,-7.394306064E-1,2.252499312E-1,-2.506077290E0
6.622710746E0,-7.986828089E-1,1.769929975E-1,-2.770574093E0
6.632597882E0,-8.573241234E-1,1.653869003E-1,-2.977651358E0
6.642485017E0,-9.086353183E-1,1.513374150E-1,-3.064391613E0
6.652372152E0,-9.147437811E-1,1.849340051E-1,-3.008804560E0
6.662259236E0,-8.762603998E-1,2.612899244E-1,-2.846930027E0
6.672146371E0,-7.882983685E-1,3.016058207E-1,-2.632522583E0
6.682033507E0,-6.722373962E-1,2.857238054E-1,-2.427888870E0
6.691920590E0,-6.056550741E-1,2.368560284E-1,-2.288004875E0
6.701807725E0,-6.111527085E-1,1.488940120E-1,-2.244023800E0
6.711694861E0,-6.459710002E-1,1.679830020E-3,-2.280674696E0
6.721581996E0,-6.661289334E-1,-1.675248593E-1,-2.366804123E0
6.731469079E0,-6.624638438E-1,-2.958027720E-1,-2.457209349E0
6.741356215E0,-6.380299330E-1,-3.391729295E-1,-2.488973618E0
6.751243350E0,-5.812211633E-1,-2.744231224E-1,-2.438273191E0
6.761130434E0,-5.256340504E-1,-1.418692768E-1,-2.323433876E0
6.771017569E0,-4.895940721E-1,2.977880463E-2,-2.149953365E0
6.780904704E0,-4.755446017E-1,1.611109674E-1,-1.914777040E0
6.790791788E0,-4.621059597E-1,2.631224692E-1,-1.686931014E0
6.800678923E0,-4.504998624E-1,3.571929336E-1,-1.559874773E0
6.810566059E0,-4.346178174E-1,3.907895386E-1,-1.533608437E0
6.820453194E0,-3.906368315E-1,3.987305462E-1,-1.572091818E0
6.830340277E0,-3.191677034E-1,4.237752855E-1,-1.631343961E0
6.840227413E0,-2.409792393E-1,4.561502039E-1,-1.673492432E0
6.850114548E0,-1.713426560E-1,4.756973088E-1,-1.646004319E0
6.860001632E0,-1.188097894E-1,4.934118688E-1,-1.512228727E0
6.869888767E0,-8.826743066E-2,5.318952799E-1,-1.261781335E0
6.879775902E0,-8.093725890E-2,5.697677732E-1,-9.343672395E-1
6.889662986E0,-8.154810965E-2,5.716003180E-1,-6.258130074E-1
6.899550121E0,-7.666133344E-2,5.172349215E-1,-4.065188468E-1
6.909437257E0,-6.933116168E-2,4.194993675E-1,-2.800734639E-1
6.919324392E0,-3.939964995E-2,2.961082160E-1,-2.049392611E-1
6.929211475E0,2.535016090E-2,1.488940120E-1,-1.475196183E-1
6.939098611E0,9.315420687E-2,-3.802524135E-2,-1.047603041E-1
6.948985746E0,1.505738497E-1,-2.640387416E-1,-6.994201243E-2
6.958872829E0,2.208212912E-1,-4.918847680E-1,-1.618745178E-2
6.968759965E0,3.313846290E-1,-7.026270628E-1,9.437590092E-2
6.978647100E0,4.243097901E-1,-8.626690507E-1,2.525853515E-1
6.988534236E0,4.554629922E-1,-9.158127308E-1,4.095730782E-1
6.998421319E0,4.463002682E-1,-8.229639530E-1,5.073086619E-1
7.008308454E0,4.041518271E-1,-6.116108298E-1,5.066977739E-1
7.018195590E0,3.295520842E-1,-3.355078697E-1,4.230117202E-1
7.028082673E0,2.764083743E-1,-1.131594554E-1,3.417690396E-1
7.037969809E0,3.038965166E-1,-3.436015919E-2,3.582619131E-1
7.047856944E0,3.558185399E-1,2.000524849E-2,4.407263100E-1
7.057744079E0,3.527642787E-1,1.128540337E-1,4.993676245E-1
7.067631163E0,3.075616062E-1,1.672194302E-1,4.902049303E-1
7.077518298E0,2.312056869E-1,2.301367074E-1,4.120164812E-1
7.087405434E0,1.890572309E-1,3.486410677E-1,3.429907262E-1
7.097292517E0,2.293731421E-1,4.928010404E-1,3.344388604E-1
7.107179652E0,2.641914487E-1,6.424586177E-1,3.698680103E-1
7.117066788E0,2.373141646E-1,7.769213319E-1,4.059080184E-1
7.126953923E0,1.884463727E-1,8.447254300E-1,4.431696832E-1
7.136841007E0,1.493521482E-1,8.477796316E-1,5.128062963E-1
7.146728142E0,1.175880954E-1,8.245674372E-1,6.172611713E-1
7.156615277E0,9.926267713E-2,7.946359515E-1,7.302678823E-1
7.166502413E0,1.432436854E-1,7.530983090E-1,8.561024070E-1
7.176389496E0,2.538070381E-1,6.772769094E-1,1.008814216E0
7.186276632E0,3.490992188E-1,4.775298536E-1,1.159693480E0
7.196163767E0,3.637595475E-1,1.904316396E-1,1.264148355E0
7.206050850E0,2.898470163E-1,-8.139539510E-2,1.306296825E0
7.215937986E0,1.963873953E-1,-3.110739589E-1,1.302020907E0
7.225825121E0,1.371352077E-1,-5.285356045E-1,1.281252146E0
7.235712257E0,1.236965731E-1,-7.661551833E-1,1.259872437E0
7.245599340E0,1.493521482E-1,-9.628480077E-1,1.233605981E0
7.255486475E0,2.177670449E-1,-1.100288630E0,1.204896212E0
7.265373611E0,3.008422852E-1,-1.166260123E0,1.179851532E0
7.275260694E0,3.955999613E-1,-1.144269586E0,1.143200636E0
7.285147829E0,4.823402762E-1,-1.097845197E0,1.079672575E0
7.295034965E0,5.012765527E-1,-1.052031636E0,9.721634388E-1
7.304922100E0,4.267531633E-1,-1.006218195E0,8.438854814E-1
7.314809184E0,3.087832928E-1,-9.659022093E-1,7.406523228E-1
7.324696319E0,2.501419485E-1,-9.439117312E-1,6.899519563E-1
7.334583454E0,2.672456801E-1,-9.365815520E-1,7.021689415E-1
7.344470538E0,3.234436214E-1,-9.335273504E-1,7.754706144E-1
7.354357673E0,3.619270027E-1,-9.035958052E-1,8.835905790E-1
7.364244809E0,3.723114133E-1,-8.461761475E-1,9.984298348E-1
7.374131944E0,3.686463237E-1,-7.649334669E-1,1.074785709E0
7.384019027E0,3.631486893E-1,-6.861341596E-1,1.089446068E0
7.393906163E0,3.570402265E-1,-6.543701291E-1,1.042410851E0
7.403793298E0,3.662029207E-1,-6.830799580E-1,9.611681700E-1
7.413680434E0,3.729222417E-1,-7.270609736E-1,8.787037730E-1
7.423567517E0,3.576510847E-1,-7.411104441E-1,8.206732869E-1
7.433454652E0,3.338280320E-1,-7.014053464E-1,8.011261821E-1
7.443341788E0,3.210002482E-1,-6.470399499E-1,8.121214509E-1
7.453228871E0,3.197785318E-1,-5.957288146E-1,8.341119289E-1
7.463116007E0,3.338280320E-1,-5.205945969E-1,8.475505710E-1
7.473003142E0,3.350497186E-1,-4.381301999E-1,8.438854814E-1
7.482890277E0,3.057290614E-1,-3.471139669E-1,8.218950033E-1
7.492777361E0,2.886253297E-1,-2.750339806E-1,7.968502641E-1
7.502664496E0,2.935121059E-1,-2.225011140E-1,7.766922712E-1
7.512551632E0,2.849602401E-1,-1.553079188E-1,7.644753456E-1
7.522438767E0,2.476985604E-1,-9.300149232E-2,7.687512636E-1
7.532325850E0,2.250972092E-1,4.581354442E-4,7.864658237E-1
7.542212986E0,2.531961799E-1,1.452289373E-1,8.176190853E-1
7.552100121E0,2.996205688E-1,2.954973578E-1,8.591566682E-1
7.561987204E0,3.038965166E-1,4.537068009E-1,8.713735938E-1
7.571874340E0,2.965663373E-1,5.770979524E-1,8.396095634E-1
7.581761475E0,3.069507480E-1,6.161921620E-1,7.730271816E-1
7.591648611E0,3.118375242E-1,5.978667736E-1,6.997255087E-1
7.601535694E0,3.020639718E-1,5.575508475E-1,6.355865598E-1
7.611422829E0,2.898470163E-1,5.068505406E-1,5.775560737E-1
7.621309965E0,2.855710983E-1,4.561502039E-1,5.317425132E-1
7.631197100E0,2.837385535E-1,4.072824121E-1,4.957025647E-1
7.641084184E0,2.782409191E-1,3.614688516E-1,4.749337435E-1
7.650971319E0,2.782409191E-1,3.358132839E-1,4.871506989E-1
7.660858454E0,2.849602401E-1,3.089359999E-1,5.525113344E-1
7.670745538E0,2.929012477E-1,2.954973578E-1,6.594096422E-1
7.680632673E0,2.977880239E-1,2.716743052E-1,7.687512636E-1
7.690519809E0,2.996205688E-1,2.118112892E-1,8.353336453E-1
7.700406944E0,2.886253297E-1,1.330119967E-1,8.365553021E-1
7.710294027E0,2.684673667E-1,6.093201414E-2,7.919634581E-1
7.720181163E0,2.513636351E-1,1.389677543E-2,7.492041588E-1
7.730068298E0,2.342599183E-1,-2.214321308E-2,7.412631512E-1
7.739955382E0,2.177670449E-1,-3.619270027E-2,7.797465324E-1
7.749842517E0,2.214321345E-1,-1.985253533E-3,8.389987350E-1
7.759729652E0,2.360924631E-1,6.215370819E-2,8.829796910E-1
7.769616788E0,2.446443290E-1,1.061347127E-1,8.835905790E-1
7.779503871E0,2.495311052E-1,1.128540337E-1,8.383878469E-1
7.789391007E0,2.483094037E-1,7.131642103E-2,7.760814428E-1
7.799278142E0,2.312056869E-1,1.145338640E-2,7.192726731E-1
7.809165277E0,2.049392611E-1,-2.275406010E-2,6.850652099E-1
7.819052361E0,1.719534993E-1,-4.596625641E-2,6.868977547E-1
7.828939496E0,1.524063945E-1,-5.879404768E-2,7.088882327E-1
7.838826632E0,1.603474021E-1,-6.978929788E-2,7.107207775E-1
7.848713715E0,1.701209545E-1,-9.177979827E-2,6.887302995E-1
7.858600850E0,1.652341783E-1,-6.551336497E-2,6.606312990E-1
7.868487986E0,1.627907902E-1,5.360184610E-2,6.985038519E-1
7.878375121E0,1.554606259E-1,5.421269313E-2,7.608102560E-1
7.888262257E0,1.609582454E-1,8.475505561E-2,7.620319724E-1
7.898149340E0,1.652341783E-1,1.470614821E-1,7.015580535E-1
7.908036475E0,1.554606259E-1,1.623326540E-1,6.013791561E-1
7.917923611E0,1.084253863E-1,1.757712960E-1,4.828747511E-1
7.927810694E0,4.734066129E-2,2.228065431E-1,4.046863019E-1
7.937697829E0,7.024743594E-3,2.588465214E-1,3.991886973E-1
7.947584965E0,-1.801999472E-2,2.857238054E-1,4.468347728E-1
7.957472100E0,-5.161659420E-2,3.138227761E-1,5.042544007E-1
7.967359184E0,-8.582404256E-2,3.156553209E-1,5.286883116E-1
7.977246319E0,-6.261184067E-2,2.405211031E-1,5.225798488E-1
7.987133454E0,1.679829881E-2,6.887302548E-2,5.164713860E-1
7.997020590E0,4.428642616E-2,-1.149920002E-1,5.262449384E-1
8.006907673E0,2.748812549E-3,-2.273878902E-1,5.415160656E-1
8.016794809E0,-4.795150831E-2,-2.915268540E-1,5.390726924E-1
8.026681944E0,-8.704573661E-2,-3.220692277E-1,5.183038712E-1
8.036569079E0,-1.017060652E-1,-3.397837877E-1,4.847072959E-1
8.046456163E0,-9.193251282E-2,-3.257342875E-1,4.456130862E-1
8.056343298E0,-8.154810965E-2,-2.542651594E-1,4.107947946E-1
8.066230434E0,-7.727217674E-2,-1.925695986E-1,3.839175105E-1
8.076117569E0,-7.543963939E-2,-1.681357026E-1,3.643703759E-1
8.086004652E0,-8.338065445E-2,-1.779092699E-1,3.515425920E-1
8.095891788E0,-1.059819981E-1,-2.060082406E-1,3.436015844E-1
8.105778923E0,-1.340809762E-1,-2.029540092E-1,3.527642787E-1
8.115666007E0,-1.493521482E-1,-1.553079188E-1,3.851391971E-1
8.125553142E0,-1.493521482E-1,-9.422318637E-2,4.376720488E-1
8.135440277E0,-1.475196183E-1,-1.236965694E-2,4.902049303E-1
8.145327413E0,-1.554606259E-1,8.047912270E-2,5.280774832E-1
8.155214496E0,-1.505738497E-1,1.495048702E-1,5.457920432E-1
8.165101632E0,-1.243074164E-1,1.769929975E-1,5.451811552E-1
8.174988767E0,-7.910472155E-2,1.482831687E-1,5.323534012E-1
8.184875902E0,-2.901524492E-2,8.597674966E-2,5.097520351E-1
8.194762986E0,1.985253580E-2,2.305948362E-2,4.669927359E-1
8.204650121E0,4.795150831E-2,-1.725643501E-2,3.924693763E-1
8.214537257E0,5.711421743E-2,-7.834116369E-2,3.118375242E-1
8.224424392E0,7.727217674E-2,-1.699682474E-1,2.611372173E-1
8.234311475E0,1.035386100E-1,-2.567085624E-1,2.586938143E-1
8.244198611E0,1.224748790E-1,-2.982461751E-1,2.770192325E-1
8.254085746E0,1.291942000E-1,-3.122956753E-1,2.959555089E-1
8.263972882E0,1.279724985E-1,-3.269560039E-1,2.941229641E-1
8.273859965E0,1.212531775E-1,-3.611634374E-1,2.464768738E-1
8.283747100E0,9.865183383E-2,-4.210264683E-1,1.615691036E-1
8.293634236E0,6.383354217E-2,-4.772244096E-1,7.849387079E-2
8.303521371E0,3.084778599E-2,-4.619532526E-1,1.068982668E-2
8.313408454E0,1.007897966E-2,-3.642176688E-1,-4.245388508E-2
8.323295590E0,-3.970507067E-3,-2.157817930E-1,-7.727217674E-2
8.333182725E0,-1.374406368E-2,-7.589777559E-2,-1.053711548E-1
8.343069861E0,3.054236295E-4,7.788302377E-3,-1.291942000E-1
8.352956944E0,2.229592577E-2,-6.261184346E-3,-1.371352077E-1
8.362844079E0,4.001049697E-2,-6.978929788E-2,-1.395785958E-1
8.372731215E0,4.367557913E-2,-1.131594554E-1,-1.505738497E-1
8.382618350E0,4.550812021E-2,-1.333174109E-1,-1.462979168E-1
8.392505434E0,6.688777357E-2,-1.632489264E-1,-1.065928489E-1
8.402392569E0,9.376505762E-2,-2.102841735E-1,-5.344913527E-2
8.412279704E0,7.238540053E-2,-2.664821148E-1,-2.962609194E-2
8.422166840E0,3.145863488E-2,-2.609844804E-1,-4.795150831E-2
8.432053923E0,5.039490014E-2,-1.485885978E-1,-9.132166207E-2
8.441941059E0,1.127013192E-1,4.123218823E-3,-1.450762302E-1
8.451828194E0,1.389677525E-1,1.433963925E-1,-2.312056869E-1
8.461715329E0,8.521319181E-2,2.826695740E-1,-3.643703759E-1
8.471602413E0,-2.229592577E-2,4.176668227E-1,-5.183038712E-1
8.481489548E0,-1.243074164E-1,5.086830258E-1,-6.514685750E-1
8.491376684E0,-1.969982386E-1,5.477772951E-1,-7.656970620E-1
8.501263819E0,-2.476985604E-1,5.532749295E-1,-8.750386834E-1
8.511150902E0,-2.867927849E-1,5.630484819E-1,-9.814024568E-1
8.521038038E0,-3.179459870E-1,6.100836992E-1,-1.075472951E0
8.530925173E0,-3.533751369E-1,6.754443645E-1,-1.164656639E0
8.540812309E0,-4.101839364E-1,7.115607262E-1,-1.287436962E0
8.550699392E0,-4.785988331E-1,7.005654573E-1,-1.467636943E0
8.560586527E0,-5.421269536E-1,6.565080881E-1,-1.707699895E0
8.570473663E0,-6.190937161E-1,6.394043565E-1,-1.990522146E0
8.580360798E0,-7.186617851E-1,6.766660213E-1,-2.262959957E0
8.590247882E0,-8.096780181E-1,7.378271222E-1,-2.438273191E0
8.600135017E0,-8.664868474E-1,7.940250635E-1,-2.519515991E0
8.610022152E0,-8.970292211E-1,7.958576083E-1,-2.581211567E0
8.619909288E0,-9.263498783E-1,7.402704954E-1,-2.683223009E0
8.629796371E0,-9.678874612E-1,6.827745438E-1,-2.821885347E0
8.639683507E0,-1.039967418E0,6.369609833E-1,-2.968488693E0
8.649570642E0,-1.146254897E0,5.483881235E-1,-3.119978666E0
8.659457777E0,-1.242768764E0,3.968980014E-1,-3.286129236E0
8.669344913E0,-1.297134161E0,1.867665499E-1,-3.443727732E0
8.679231996E0,-1.289193153E0,-7.040014863E-2,-3.548793554E0
8.689119132E0,-1.234216928E0,-3.037438095E-1,-3.544517517E0
8.699006267E0,-1.162136912E0,-4.149180055E-1,-3.426624060E0
8.708893402E0,-1.104106426E0,-4.075878263E-1,-3.240315676E0
8.718780486E0,-1.052184463E0,-3.373403847E-1,-3.022243261E0
8.728667621E0,-9.532271624E-1,-2.542651594E-1,-2.779736757E0
8.738554757E0,-8.237275481E-1,-1.815743446E-1,-2.530511141E0
8.748441892E0,-7.492041588E-1,-1.039967462E-1,-2.314882040E0
8.758328975E0,-7.424848676E-1,8.399149403E-3,-2.151175022E0
8.768216111E0,-7.015580535E-1,1.317902952E-1,-2.019842863E0
8.778103246E0,-6.062659025E-1,2.270824611E-1,-1.894008279E0
8.787990382E0,-5.121954083E-1,2.887780368E-1,-1.762065291E0
8.797877465E0,-4.309527278E-1,3.223746419E-1,-1.622792125E0
8.807764600E0,-3.490992188E-1,3.364241421E-1,-1.477410436E0
8.817651736E0,-2.641914487E-1,3.266505599E-1,-1.291102052E0
8.827538871E0,-1.652341783E-1,3.345915973E-1,-1.047984838E0
8.837426007E0,-7.666133344E-2,3.828485310E-1,-7.986828089E-1
8.847313090E0,-3.970507067E-3,4.237752855E-1,-5.879405141E-1
8.857200225E0,7.971556485E-2,4.372139275E-1,-4.321744442E-1
8.867087361E0,1.566823274E-1,3.834593594E-1,-3.014531136E-1
8.876974444E0,2.464768738E-1,2.625116110E-1,-1.273616552E-1
8.886861579E0,3.362714052E-1,1.091889441E-1,1.426328421E-1
8.896748715E0,4.163687527E-1,-2.458660305E-2,4.877615273E-1
8.906635850E0,4.524087608E-1,-1.125486046E-1,7.913526297E-1
8.916522986E0,4.322507977E-1,-1.363716573E-1,9.074136019E-1
8.926410069E0,3.943782747E-1,-8.628217876E-2,7.944068313E-1
8.936297204E0,3.381039500E-1,1.267508045E-2,5.415160656E-1
8.946184340E0,2.904578745E-1,7.986827940E-2,3.203893900E-1
8.956071475E0,3.521534503E-1,7.437065244E-2,3.057290614E-1
8.965958611E0,4.921138287E-1,8.842013776E-2,4.633276463E-1
8.975845694E0,5.733565092E-1,1.531699449E-1,6.294780970E-1
8.985732829E0,5.538094044E-1,1.659977436E-1,7.040014863E-1
8.995619965E0,4.542413056E-1,9.575030953E-2,6.752916574E-1
9.005507100E0,3.271087110E-1,-1.725643501E-2,6.105418205E-1
9.015394184E0,2.354816198E-1,-6.306997687E-2,5.445703268E-1
9.025281319E0,1.829487532E-1,-1.847812906E-2,4.767662883E-1
9.035168454E0,1.609582454E-1,9.758284688E-2,4.486673176E-1
9.045055590E0,1.566823274E-1,2.435753495E-1,5.018110275E-1
9.054942673E0,1.249182671E-1,3.816268146E-1,6.203153729E-1
9.064829809E0,7.482878864E-2,4.848600030E-1,7.577560544E-1
9.074716944E0,6.627693027E-2,5.459447503E-1,8.683193922E-1
9.084604079E0,1.163664013E-1,5.557183027E-1,9.055810571E-1
9.094491163E0,1.652341783E-1,4.494308829E-1,8.695410490E-1
9.104378298E0,1.896680743E-1,2.148655206E-1,8.102889061E-1
9.114265434E0,2.037175596E-1,-7.528692484E-2,7.846332788E-1
9.124152569E0,1.963873953E-1,-3.049654961E-1,7.864658237E-1
9.134039704E0,1.682884246E-1,-4.326325655E-1,7.852441669E-1
9.143926788E0,1.438545287E-1,-5.175403357E-1,7.791357040E-1
9.153813923E0,1.395785958E-1,-5.755708218E-1,7.583668828E-1
9.163701059E0,1.530172378E-1,-6.232169271E-1,7.174401283E-1
9.173588194E0,1.713426560E-1,-6.610894203E-1,6.624638438E-1
9.183475277E0,1.963873953E-1,-6.934643388E-1,6.142069101E-1
9.193362413E0,2.195995897E-1,-7.172874212E-1,6.044333577E-1
9.203249548E0,2.385358512E-1,-7.014053464E-1,6.398624778E-1
9.213136684E0,2.476985604E-1,-6.580352187E-1,7.003363967E-1
9.223023767E0,2.422009408E-1,-6.488724947E-1,7.663078904E-1
9.232910902E0,2.305948436E-1,-6.855233312E-1,8.218950033E-1
9.242798038E0,2.275405973E-1,-7.527165413E-1,8.597674966E-1
9.252685173E0,2.489202619E-1,-8.272398710E-1,8.951966763E-1
9.262572309E0,2.751866877E-1,-8.565605879E-1,9.507837296E-1
9.272459392E0,2.843494117E-1,-7.918107510E-1,1.021642089E0
9.282346527E0,2.776300907E-1,-6.494833231E-1,1.110214949E0
9.292233663E0,2.745758295E-1,-4.466820657E-1,1.223221660E0
9.302120798E0,2.739650011E-1,-2.481566966E-1,1.361273170E0
9.312007934E0,2.837385535E-1,-9.300149232E-2,1.495048642E0
9.321895017E0,3.136700690E-1,2.901524538E-3,1.560409307E0
9.331782152E0,3.356605768E-1,4.382828996E-2,1.507876515E0
9.341669288E0,3.429907262E-1,7.437065244E-2,1.343558550E0
9.351556423E0,3.368822634E-1,7.375980914E-2,1.123653531E0
9.361443507E0,3.417690396E-1,7.131642103E-2,9.123004079E-1
9.371330642E0,3.490992188E-1,9.697200358E-2,7.479824424E-1
9.381217777E0,3.472666740E-1,1.030804738E-1,6.459710002E-1
9.391104913E0,3.301629424E-1,9.575030953E-2,5.983248949E-1
9.400992048E0,2.953446507E-1,7.314895838E-2,5.726693273E-1
9.410879132E0,2.684673667E-1,-7.482878864E-3,5.360184908E-1
9.420766267E0,2.568612695E-1,-1.437018216E-1,4.908157587E-1
9.430653402E0,2.391466945E-1,-2.848075330E-1,4.584408700E-1
9.440540538E0,2.336490750E-1,-4.045335948E-1,4.553866386E-1
9.450427621E0,2.299840003E-1,-4.821111858E-1,4.804313779E-1
9.460314757E0,2.116585821E-1,-4.924955964E-1,5.146388412E-1
9.470201892E0,1.969982386E-1,-4.711159468E-1,5.402944088E-1
9.480089027E0,1.957765520E-1,-4.442386627E-1,5.506787896E-1
9.489976163E0,1.915006191E-1,-4.301891923E-1,5.464028716E-1
9.499863246E0,1.976090819E-1,-4.185830951E-1,5.360184908E-1
9.509750382E0,2.098260373E-1,-4.075878263E-1,5.525113344E-1
9.519637517E0,2.189887464E-1,-3.868190348E-1,6.062659025E-1
9.529524652E0,2.330382317E-1,-3.239017725E-1,6.673506498E-1
9.539411736E0,2.452551723E-1,-2.695363462E-1,7.143858671E-1
9.549298871E0,2.519744933E-1,-2.298312783E-1,7.253811359E-1
9.559186007E0,2.458660156E-1,-2.090624720E-1,6.966713071E-1
9.569073142E0,2.422009408E-1,-1.779092699E-1,6.471926570E-1
9.578960277E0,2.513636351E-1,-1.198787764E-1,6.117635369E-1
9.588847361E0,2.580829561E-1,-9.972081333E-2,6.154286265E-1
9.598734496E0,2.580829561E-1,-1.046075895E-1,6.459710002E-1
9.608621632E0,2.305948436E-1,-1.247655526E-1,6.923953891E-1
9.618508767E0,1.933331639E-1,-1.479777545E-1,7.443174124E-1
9.628395902E0,1.768402755E-1,-1.565296054E-1,7.895200849E-1
9.638282986E0,1.798945218E-1,-1.211004704E-1,8.127322793E-1
9.648170121E0,1.939440072E-1,-4.474456236E-2,8.084563613E-1
9.658057257E0,1.963873953E-1,2.000524849E-2,7.773031592E-1
9.667944392E0,1.878355294E-1,5.482354015E-2,7.528692484E-1
9.677831475E0,1.805053651E-1,8.414421231E-2,7.766922712E-1
9.687718611E0,1.817270666E-1,1.287360638E-1,8.243383765E-1
9.697605746E0,1.872246861E-1,1.800472289E-1,8.487722874E-1
9.707492882E0,1.835595965E-1,1.965401024E-1,8.408312798E-1
9.717380017E0,1.774511337E-1,1.824906170E-1,8.377770185E-1
9.727267100E0,1.609582454E-1,1.855448484E-1,8.738170266E-1
9.737154236E0,1.511846930E-1,2.130329758E-1,9.312366247E-1
9.747041371E0,1.408002973E-1,2.515163720E-1,9.544488192E-1
9.756928507E0,1.151447073E-1,2.698417902E-1,9.202414155E-1
9.766815590E0,8.093725890E-2,2.753393948E-1,8.451071978E-1
9.776702725E0,4.550812021E-2,2.845021188E-1,7.394306064E-1
9.786589861E0,2.290677279E-2,3.052709103E-1,6.160394549E-1
9.796476996E0,5.803049076E-3,3.248180151E-1,4.950917065E-1
9.806364132E0,-4.581354558E-3,3.333698809E-1,4.138490260E-1
9.816251215E0,-1.374406368E-2,3.742966652E-1,3.808632791E-1
9.826138350E0,-3.695625812E-2,4.243861437E-1,3.668137789E-1
9.836025486E0,-7.238540053E-2,4.396573007E-1,3.258870244E-1
9.845912621E0,-7.543963939E-2,3.529170156E-1,2.446443290E-1
9.855799757E0,-4.795150831E-2,1.800472289E-1,1.786728203E-1
9.865686840E0,-6.566607952E-2,1.756185852E-2,2.043284029E-1
9.875573975E0,-1.322484314E-1,-8.261708915E-2,3.112266660E-1
9.885461111E0,-1.902789176E-1,-1.180462316E-1,4.382829070E-1
9.895348246E0,-2.208212912E-1,-1.479777545E-1,5.329642296E-1
9.905235329E0,-2.342599183E-1,-1.870719790E-1,5.732801557E-1
9.915122465E0,-2.336490750E-1,-2.365505993E-1,5.812211633E-1
9.925009600E0,-2.110477239E-1,-2.915268540E-1,5.763344169E-1
9.934896736E0,-1.860029846E-1,-3.147390485E-1,5.451811552E-1
9.944783871E0,-1.725643575E-1,-2.921377122E-1,4.932591617E-1
9.954671007E0,-1.713426560E-1,-2.438807636E-1,4.498890042E-1
9.964558090E0,-1.737860441E-1,-2.047865391E-1,4.572191834E-1
9.974445225E0,-1.701209545E-1,-1.846285909E-1,5.262449384E-1
9.984332361E0,-1.615691036E-1,-1.711899489E-1,6.447492838E-1
9.994219496E0,-1.603474021E-1,-1.553079188E-1,7.907418013E-1
1.000410658E1,-1.487413049E-1,-1.614163816E-1,9.416210651E-1
1.001399372E1,-1.053711548E-1,-1.718007922E-1,1.074785709E0
1.002388085E1,-6.016845629E-2,-1.485885978E-1,1.152363300E0
1.003376799E1,-3.817795217E-2,-9.116895497E-2,1.142589808E0
1.004365512E1,-2.351761982E-2,-1.603474095E-2,1.046686769E0
1.005354220E1,-1.618745178E-2,4.016320780E-2,8.933641315E-1
1.006342934E1,-1.313321572E-2,3.771981969E-2,6.936170459E-1
1.007331648E1,-1.985253580E-2,3.512371797E-3,4.578300118E-1
1.008320361E1,-3.084778599E-2,-5.024218559E-2,2.391466945E-1
1.009309075E1,-1.924168877E-2,-9.300149232E-2,1.078145429E-1
1.010297783E1,1.496575773E-2,-1.076618284E-1,7.666133344E-2
1.011286496E1,5.894676223E-2,-9.972081333E-2,1.047603041E-1
1.012275210E1,1.029277667E-1,-8.994726092E-2,1.255291104E-1
1.013263924E1,1.346918195E-1,-5.818320066E-2,7.971556485E-2
1.014252637E1,1.462979168E-1,-1.236965694E-2,-3.390202299E-2
1.015241345E1,1.499630064E-1,7.009471953E-2,-1.878355294E-1
1.016230059E1,1.517955512E-1,1.623326540E-1,-3.527642787E-1
1.017218772E1,1.676775664E-1,2.509055138E-1,-5.274665952E-1
1.018207486E1,1.908897758E-1,3.626905680E-1,-6.826218367E-1
1.019196194E1,1.878355294E-1,5.080721974E-1,-7.107207775E-1
1.020184908E1,1.737860441E-1,6.552863717E-1,-5.421269536E-1
1.021173622E1,1.719534993E-1,7.976901531E-1,-2.874036431E-1
1.022162335E1,2.061609477E-1,9.076426625E-1,-9.071081877E-2
1.023151049E1,2.544178963E-1,9.204704762E-1,-2.107422985E-2
1.024139757E1,2.666348219E-1,8.862630129E-1,-7.238540053E-2
1.025128470E1,2.238755226E-1,8.618291020E-1,-1.908897758E-1
1.026117184E1,1.499630064E-1,8.667159081E-1,-3.338280320E-1
1.027105898E1,7.727217674E-2,9.088643789E-1,-4.822639227E-1
1.028094611E1,2.657185495E-2,9.571213126E-1,-6.197045445E-1
1.029083319E1,5.803049076E-3,9.986588955E-1,-7.608102560E-1
1.030072033E1,7.635590620E-3,1.024925351E0,-9.220739603E-1
1.031060746E1,5.192201585E-3,9.815551639E-1,-1.077305555E0
1.032049460E1,-1.740914769E-2,8.685484529E-1,-1.181149483E0
1.033038174E1,-4.611896724E-2,7.384379506E-1,-1.224519730E0
1.034026882E1,-8.460234851E-2,5.929799676E-1,-1.222076297E0
1.035015595E1,-1.304158866E-1,4.708105326E-1,-1.209859371E0
1.036004309E1,-1.811162084E-1,3.590254784E-1,-1.231238961E0
1.036993023E1,-2.489202619E-1,2.380777150E-1,-1.306984067E0
1.037981736E1,-3.381039500E-1,1.214058921E-1,-1.446868062E0
1.038970450E1,-4.407263100E-1,2.244863659E-2,-1.656999588E0
1.039959158E1,-5.360184908E-1,-5.940489471E-2,-1.927604914E0
1.040947872E1,-6.044333577E-1,-9.239064902E-2,-2.236693621E0
1.041936585E1,-6.520794630E-1,-7.589777559E-2,-2.527456999E0
1.042925299E1,-6.978929639E-1,-3.191677108E-2,-2.700326681E0
1.043914012E1,-7.278245091E-1,2.916795574E-2,-2.692385674E0
1.044902720E1,-7.253811359E-1,4.016320780E-2,-2.550669193E0
1.045891434E1,-7.082774043E-1,-1.298050396E-2,-2.370469093E0
1.046880148E1,-6.856760383E-1,-9.788827598E-2,-2.223254919E0
1.047868861E1,-6.710157394E-1,-1.931804419E-1,-2.161559343E0
1.048857575E1,-6.862868667E-1,-3.031329513E-1,-2.211648941E0
1.049846283E1,-7.235485911E-1,-3.837648034E-1,-2.375355959E0
1.050834996E1,-7.614210844E-1,-4.002576768E-1,-2.618473053E0
1.051823710E1,-7.785248160E-1,-3.532224298E-1,-2.854260206E0
1.052812424E1,-7.412631512E-1,-2.518217862E-1,-2.986203194E0
1.053801137E1,-6.642963886E-1,-8.994726092E-2,-2.962990999E0
1.054789845E1,-5.861079693E-1,1.299577504E-1,-2.771184921E0
1.055778559E1,-4.957025647E-1,4.390464723E-1,-2.457209349E0
1.056767273E1,-3.851391971E-1,7.280535698E-1,-2.096198797E0
1.057755986E1,-2.757975459E-1,9.131402969E-1,-1.777947307E0
1.058744700E1,-1.829487532E-1,9.809443355E-1,-1.570870042E0
1.059733413E1,-1.230857223E-1,9.528453946E-1,-1.482297182E0
1.060722122E1,-8.582404256E-2,8.935931921E-1,-1.481075525E0
1.061710835E1,-4.489727318E-2,8.312867880E-1,-1.505509377E0
1.062699549E1,9.162708884E-4,7.952467799E-1,-1.502455235E0
1.063688262E1,4.062134400E-2,8.245674372E-1,-1.470080256E0
1.064676976E1,8.887827396E-2,8.990908265E-1,-1.413271546E0
1.065665684E1,1.469087601E-1,9.650623202E-1,-1.319811821E0
1.066654398E1,1.915006191E-1,1.004156590E0,-1.173208475E0
1.067643111E1,2.086043358E-1,1.057300210E0,-9.881218076E-1
1.068631825E1,1.957765520E-1,1.060354471E0,-7.986828089E-1
1.069620538E1,1.811162084E-1,9.748358727E-1,-6.453601122E-1
1.070609247E1,1.664558798E-1,8.111287951E-1,-5.641174316E-1
1.071597960E1,1.438545287E-1,6.259657145E-1,-5.622848868E-1
1.072586674E1,1.206423342E-1,4.830274582E-1,-6.123743653E-1
1.073575387E1,9.681928903E-2,3.718532622E-1,-6.844543815E-1
1.074564101E1,8.032641560E-2,2.625116110E-1,-7.345438004E-1
1.075552814E1,6.872031838E-2,1.421747059E-1,-7.363763452E-1
1.076541522E1,5.344913527E-2,6.566607859E-3,-6.875085831E-1
1.077530236E1,4.672981426E-2,-1.302631795E-1,-5.897729993E-1
1.078518950E1,7.482878864E-2,-2.536543310E-1,-4.443913698E-1
1.079507663E1,1.304158866E-1,-3.611634374E-1,-2.819060087E-1
1.080496377E1,1.585148573E-1,-4.350759685E-1,-1.542389393E-1
1.081485085E1,1.621799469E-1,-4.766135812E-1,-8.276980370E-2
1.082473799E1,1.737860441E-1,-5.059342384E-1,-4.611896724E-2
1.083462512E1,1.921114624E-1,-5.230379701E-1,-1.313321572E-2
1.084451226E1,2.061609477E-1,-5.370874405E-1,3.390202299E-2
1.085439939E1,2.202104330E-1,-5.639647245E-1,1.120904684E-1
1.086428653E1,2.379250079E-1,-6.244385839E-1,2.238755226E-1
1.087417361E1,2.586938143E-1,-6.769714952E-1,3.405473530E-1
1.088406075E1,2.904578745E-1,-6.952968836E-1,4.419479966E-1
1.089394788E1,3.454341292E-1,-6.568135023E-1,5.195255876E-1
1.090383502E1,3.894914687E-1,-5.413633585E-1,5.445703268E-1
1.091372215E1,3.919348717E-1,-3.794888556E-1,4.767662883E-1
1.092360924E1,3.326063454E-1,-2.005106062E-1,3.124483824E-1
1.093349637E1,2.440334857E-1,-4.535540938E-2,1.462979168E-1
1.094338351E1,2.147128135E-1,4.016320780E-2,1.133121699E-1
1.095327064E1,2.776300907E-1,6.704048812E-2,2.422009408E-1
1.096315778E1,3.771981895E-1,8.536590636E-2,4.608842432E-1
1.097304491E1,4.334724844E-1,7.253811508E-2,6.661289334E-1
1.098293200E1,4.139253795E-1,3.161134571E-2,7.577560544E-1
1.099281913E1,3.112266660E-1,-5.268557742E-2,7.229377031E-1
1.100270627E1,1.688992679E-1,-1.559187621E-1,6.239804626E-1
1.101259340E1,8.154810965E-2,-1.779092699E-1,5.299099684E-1
1.102248054E1,8.215895295E-2,-9.300149232E-2,4.749337435E-1
1.103236767E1,1.200314835E-1,4.321744293E-2,4.847072959E-1
1.104225476E1,1.579040140E-1,1.800472289E-1,5.525113344E-1
1.105214189E1,1.615691036E-1,2.948864996E-1,6.386408210E-1
1.106202903E1,1.236965731E-1,3.681881726E-1,7.101099491E-1
1.107191616E1,1.090362370E-1,4.036173224E-1,7.754706144E-1
1.108180330E1,1.291942000E-1,4.078932703E-1,8.396095634E-1
1.109169043E1,1.811162084E-1,3.516952991E-1,9.068027735E-1
1.110157752E1,2.959555089E-1,2.466295809E-1,9.709417224E-1
1.111146465E1,4.377484024E-1,1.427855492E-1,9.996515512E-1
1.112135179E1,5.220453143E-1,5.299099907E-2,9.886562824E-1
1.113123892E1,5.012765527E-1,-6.429167092E-2,9.782719016E-1
1.114112606E1,4.291965663E-1,-1.882936656E-1,9.898779988E-1
1.115101319E1,3.680354655E-1,-2.866400778E-1,1.000262380E0
1.116090028E1,3.643703759E-1,-3.257342875E-1,1.006981730E0
1.117078741E1,3.845283389E-1,-3.440597057E-1,1.013701081E0
1.118067455E1,4.108711481E-1,-3.752129376E-1,1.033859015E0
1.119056168E1,4.194230139E-1,-4.167505503E-1,1.024085402E0
1.120044882E1,3.863608837E-1,-4.766135812E-1,9.630007148E-1
1.121033590E1,3.454341292E-1,-5.584670901E-1,8.774821162E-1
1.122022304E1,3.106158376E-1,-6.378772259E-1,8.011261821E-1
1.123011017E1,3.075616062E-1,-6.861341596E-1,7.699729800E-1
1.123999731E1,3.301629424E-1,-6.745280623E-1,7.944068313E-1
1.124988444E1,3.344388604E-1,-5.871769190E-1,8.634325862E-1
1.125977158E1,3.106158376E-1,-4.271349311E-1,9.471186996E-1
1.126965866E1,2.904578745E-1,-2.267770469E-1,1.006981730E0
1.127954580E1,2.971771955E-1,-5.024218559E-2,1.029583097E0
1.128943293E1,3.173351586E-1,2.367033064E-2,1.030193925E0
1.129932007E1,3.393256664E-1,4.734066315E-3,1.042410851E0
1.130920720E1,3.600944579E-1,-8.093725890E-3,1.074785709E0
1.131909429E1,3.907131851E-1,1.511846948E-2,1.118155956E0
1.132898142E1,4.175904691E-1,6.581879407E-2,1.147476554E0
1.133886856E1,4.279748499E-1,1.470614821E-1,1.135259628E0
1.134875569E1,4.249206185E-1,2.008160353E-1,1.069288135E0
1.135864283E1,4.188121557E-1,2.099787444E-1,9.544488192E-1
1.136852996E1,4.041518271E-1,2.228065431E-1,8.060129285E-1
1.137841705E1,4.053735137E-1,2.454078794E-1,6.520794630E-1
1.138830418E1,4.224772453E-1,2.441861928E-1,5.311316848E-1
1.139819132E1,4.249206185E-1,2.124221325E-1,4.999784827E-1
1.140807845E1,4.072060585E-1,1.892099380E-1,5.567872524E-1
1.141796559E1,3.784198761E-1,2.191414535E-1,6.514685750E-1
1.142785273E1,3.674246371E-1,2.539597452E-1,7.443174124E-1
1.143773981E1,3.680354655E-1,2.295258641E-1,8.047912717E-1
1.144762694E1,3.503209054E-1,1.849340051E-1,8.188407421E-1
1.145751408E1,3.112266660E-1,1.586675793E-1,8.041804433E-1
1.146740122E1,2.757975459E-1,1.250709742E-1,7.852441669E-1
1.147728835E1,2.556395829E-1,9.819369763E-2,7.760814428E-1
1.148717549E1,2.611372173E-1,1.165191159E-1,7.870767117E-1
1.149706257E1,2.800734639E-1,1.916533262E-1,7.968502641E-1
1.150694970E1,2.757975459E-1,2.906105816E-1,7.803573608E-1
1.151683684E1,2.489202619E-1,3.785725832E-1,7.302678823E-1
1.152672398E1,2.086043358E-1,4.011739492E-1,6.734591126E-1
1.153661111E1,1.847812980E-1,3.510844707E-1,6.288672686E-1
1.154649819E1,1.884463727E-1,2.631224692E-1,5.952706337E-1
1.155638533E1,2.018850148E-1,1.812689304E-1,5.769452453E-1
1.156627246E1,2.092151791E-1,1.617218107E-1,6.019899845E-1
1.157615960E1,1.945548505E-1,2.160872221E-1,6.722373962E-1
1.158604674E1,1.627907902E-1,3.089359999E-1,7.345438004E-1
1.159593387E1,1.707318127E-1,3.749074936E-1,7.485933304E-1
1.160582095E1,2.153236568E-1,3.993414044E-1,7.162184119E-1
1.161570809E1,2.611372173E-1,4.072824121E-1,6.594096422E-1
1.162559523E1,2.800734639E-1,4.115583301E-1,6.221479177E-1
1.163548236E1,2.635805905E-1,4.451549351E-1,6.111527085E-1
1.164536950E1,2.385358512E-1,4.964661002E-1,5.995466113E-1
1.165525663E1,2.275405973E-1,5.361711979E-1,5.818319917E-1
1.166514372E1,2.257080674E-1,5.746545792E-1,5.671716928E-1
1.167503085E1,2.238755226E-1,5.758762360E-1,5.861079693E-1
1.168491799E1,2.348707765E-1,5.056288242E-1,6.575770974E-1
1.169480512E1,2.415900975E-1,4.298837483E-1,7.449282408E-1
1.170469226E1,2.544178963E-1,3.871244490E-1,8.054021001E-1
1.171457939E1,2.880144715E-1,3.248180151E-1,8.451071978E-1
1.172446648E1,2.929012477E-1,2.557922900E-1,8.499939442E-1
1.173435361E1,2.538070381E-1,1.721062213E-1,8.225058317E-1
1.174424075E1,1.688992679E-1,6.215370819E-2,7.895200849E-1
1.175412788E1,9.865183383E-2,-4.963133857E-2,7.828007340E-1
1.176401502E1,8.338065445E-2,-1.192679256E-1,8.243383765E-1
1.177390215E1,1.059819981E-1,-1.082726792E-1,9.129112363E-1
1.178378924E1,1.353026628E-1,-3.802524135E-2,9.837695360E-1
1.179367637E1,1.505738497E-1,5.344913341E-3,9.849911928E-1
1.180356351E1,1.450762302E-1,-6.261184346E-3,9.434536099E-1
1.181345064E1,1.243074164E-1,-3.130592033E-2,9.037485123E-1
1.182333778E1,9.498675168E-2,-3.863608837E-2,8.939749599E-1
1.183322491E1,9.132166207E-2,-1.175880991E-2,9.202414155E-1
1.184311200E1,1.224748790E-1,6.581879407E-2,9.587247968E-1
1.185299913E1,1.426328421E-1,1.543916464E-1,9.819369912E-1
1.186288627E1,1.200314835E-1,2.234173864E-1,9.648332596E-1
1.187277340E1,7.666133344E-2,2.142546773E-1,8.915315866E-1
1.188266054E1,3.512371704E-2,6.887302548E-2,7.711946368E-1
1.189254767E1,1.801999472E-2,-1.437018216E-1,6.135960817E-1
1.190243481E1,1.679829881E-2,-3.342861533E-1,4.450022280E-1
1.191232189E1,-7.024743594E-3,-4.760027230E-1,3.155026138E-1
1.192220903E1,-6.322269142E-2,-5.951179266E-1,2.690782249E-1
1.193209616E1,-1.194206402E-1,-7.020162344E-1,3.032856584E-1
1.194198330E1,-1.524063945E-1,-7.759287357E-1,3.796415627E-1
1.195187043E1,-1.603474021E-1,-8.425110579E-1,4.694361091E-1
1.196175757E1,-1.536280811E-1,-8.687775135E-1,5.409052372E-1
1.197164470E1,-1.493521482E-1,-8.199097514E-1,5.519005060E-1
1.198153179E1,-1.682884246E-1,-7.557707429E-1,4.938700199E-1
1.199141892E1,-2.098260373E-1,-6.488724947E-1,3.717005551E-1
1.200130606E1,-2.831276953E-1,-5.132644176E-1,2.250972092E-1
1.201119319E1,-3.625378609E-1,-4.075878263E-1,1.261399537E-1
1.202108033E1,-4.126273096E-1,-3.739912212E-1,9.132166207E-2
1.203096747E1,-4.315635860E-1,-4.051444530E-1,9.804098308E-2
1.204085460E1,-4.474456310E-1,-4.289674759E-1,1.316375881E-1
1.205074168E1,-4.608842432E-1,-4.417952895E-1,2.122694254E-1
1.206062882E1,-4.578300118E-1,-4.613423944E-1,3.301629424E-1
1.207051595E1,-4.431696832E-1,-4.815003574E-1,4.456130862E-1
1.208040309E1,-4.272876680E-1,-4.705050886E-1,5.213581324E-1
1.209029022E1,-4.101839364E-1,-4.314108789E-1,5.415160656E-1
1.210017736E1,-3.888042867E-1,-3.678827584E-1,5.158604980E-1
1.211006444E1,-3.717005551E-1,-2.848075330E-1,4.767662883E-1
1.211995158E1,-3.643703759E-1,-2.078407854E-1,4.224008918E-1
1.212983872E1,-3.472666740E-1,-1.540862173E-1,3.258870244E-1
1.213972585E1,-3.264978528E-1,-1.162136942E-1,1.908897758E-1
1.214961299E1,-3.313846290E-1,-9.116895497E-2,5.100574717E-2
1.215950012E1,-3.319954872E-1,-9.239064902E-2,-9.193251282E-2
1.216938726E1,-2.947337925E-1,-1.327065676E-1,-2.043284029E-1
1.217927434E1,-2.458660156E-1,-1.968455315E-1,-2.446443290E-1
1.218916148E1,-1.976090819E-1,-2.389939874E-1,-2.024958730E-1
1.219904861E1,-1.426328421E-1,-2.823641598E-1,-1.194206402E-1
1.220893575E1,-9.926267713E-2,-3.513898849E-1,-5.894676223E-2
1.221882288E1,-6.139015034E-2,-4.320217371E-1,-2.107422985E-2
1.222871002E1,-3.939964995E-2,-4.662291706E-1,-1.191152167E-2
1.223859715E1,-3.817795217E-2,-4.827220440E-1,-9.468132630E-3
1.224848429E1,-3.390202299E-2,-4.582881629E-1,3.359660041E-3
1.225837137E1,2.046338283E-2,-3.996468186E-1,2.046338283E-2
1.226825851E1,1.139230132E-1,-3.306210935E-1,2.718270384E-2
1.227814564E1,1.737860441E-1,-2.090624720E-1,-3.359660041E-3
1.228803278E1,1.701209545E-1,-2.214321308E-2,-6.749862432E-2
1.229791991E1,1.255291104E-1,1.769929975E-1,-1.768402755E-1
1.230780705E1,5.833591148E-2,3.235963285E-1,-3.545968235E-1
1.231769418E1,-1.985253580E-2,3.852919042E-1,-5.787777901E-1
1.232758127E1,-1.035386100E-1,3.914003670E-1,-8.078454733E-1
1.233746840E1,-2.012741715E-1,4.023956358E-1,-1.009501457E0
1.234735554E1,-3.124483824E-1,4.414898455E-1,-1.143277049E0
1.235724267E1,-3.997995257E-1,4.958552718E-1,-1.220243812E0
1.236712981E1,-4.437805414E-1,5.544965863E-1,-1.277663350E0
1.237701694E1,-4.566083252E-1,6.265766025E-1,-1.370512128E0
1.238690408E1,-4.676035643E-1,7.109498382E-1,-1.545825362E0
1.239679116E1,-5.091412067E-1,7.915816903E-1,-1.818874121E0
1.240667830E1,-5.922164321E-1,8.416711688E-1,-2.179273844E0
1.241656543E1,-7.058340311E-1,8.496121764E-1,-2.592206717E0
1.242645257E1,-8.567132950E-1,8.569423556E-1,-2.987424850E0
1.243633970E1,-1.030804753E0,9.100860357E-1,-3.287961721E0
1.244622684E1,-1.151752472E0,9.907178879E-1,-3.435786724E0
1.245611398E1,-1.179851532E0,1.059743643E0,-3.407687902E0
1.246600111E1,-1.143200636E0,1.102502942E0,-3.264138699E0
1.247588819E1,-1.061347127E0,1.120217562E0,-3.126087189E0
1.248577533E1,-1.011257648E0,1.027368784E0,-3.068667650E0
1.249566246E1,-1.033859015E0,8.239566088E-1,-3.119978666E0
1.250554960E1,-1.083948493E0,5.722111464E-1,-3.267803669E0
1.251543674E1,-1.113269091E0,3.040492237E-1,-3.452279568E0
1.252532387E1,-1.127318621E0,8.414421231E-2,-3.613619566E0
1.253521101E1,-1.119377613E0,-4.230117425E-2,-3.701581717E0
1.254509814E1,-1.091889501E0,-1.168245375E-1,-3.686310530E0
1.255498528E1,-1.091278672E0,-1.284306347E-1,-3.543906689E0
1.256487241E1,-1.074785709E0,-5.512896553E-2,-3.252532482E0
1.257475950E1,-9.575030804E-1,-3.130592033E-2,-2.846930027E0
1.258464663E1,-8.237275481E-1,-1.626380831E-1,-2.463928699E0
1.259453377E1,-9.788827300E-1,-8.309049606E-1,-2.218368292E0
1.260442090E1,-1.234827757E0,-1.037371397E0,-2.128573656E0
1.261430804E1,-8.707627654E-1,-6.134433746E-1,-2.088257790E0
1.262419517E1,-5.018110275E-1,-7.814263701E-1,-1.869574428E0
1.263408231E1,-4.492781460E-1,-8.302941322E-1,-1.626457214E0
1.264396939E1,-4.443913698E-1,-7.081246972E-1,-1.408995509E0
1.265385653E1,-3.393256664E-1,-6.183301210E-1,-1.152439713E0
1.266374366E1,-1.878355294E-1,-5.120427012E-1,-7.974610925E-1
1.267363080E1,-5.100574717E-2,-2.933593988E-1,-3.979669809E-1
1.268351793E1,7.727217674E-2,-6.734590977E-2,-3.359660041E-3
1.269340507E1,2.195995897E-1,7.009471953E-2,3.936910629E-1
1.270329220E1,3.429907262E-1,8.658760041E-2,8.084563613E-1
1.271317934E1,3.919348717E-1,-2.702999115E-2,1.146254897E0
1.272306642E1,3.741439581E-1,-1.937913001E-1,1.226275921E0
1.273295356E1,3.277195692E-1,-2.799207568E-1,1.049130201E0
1.274284069E1,2.990097404E-1,-1.937913001E-1,8.145648241E-1
1.275272783E1,3.222219348E-1,2.122694254E-2,6.856760383E-1
1.276261497E1,4.182012975E-1,2.008160353E-1,7.217160463E-1
1.277250210E1,5.226562023E-1,3.718532622E-1,8.280034661E-1
1.278238924E1,5.513660312E-1,4.109475017E-1,8.732061386E-1
1.279227637E1,5.110501051E-1,2.454078794E-1,7.803573608E-1
1.280216351E1,4.603497684E-1,-4.474456236E-2,5.653391480E-1
1.281205059E1,4.065952003E-1,-2.664821148E-1,3.264978528E-1
1.282193773E1,3.576510847E-1,-3.477247953E-1,1.627907902E-1
1.283182486E1,3.271087110E-1,-3.245126009E-1,9.865183383E-2
1.284171200E1,3.203893900E-1,-2.334963679E-1,9.315420687E-2
1.285159913E1,3.051182032E-1,-1.534753740E-1,1.206423342E-1
1.286148627E1,2.696890533E-1,-1.272089481E-1,1.896680743E-1
1.287137340E1,2.177670449E-1,-1.394258887E-1,2.947337925E-1
1.288126054E1,1.023169160E-1,-1.889045089E-1,4.297310412E-1
1.289114762E1,-6.261184067E-2,-2.310529798E-1,5.934380889E-1
1.290103476E1,-1.389677525E-1,-1.986780763E-1,7.779139876E-1
1.291092189E1,-7.605048269E-2,-1.876828223E-1,9.642223716E-1
1.292080903E1,3.756710514E-2,-2.328855246E-1,1.113269091E0
1.293069616E1,1.120904684E-1,-2.945810854E-1,1.166412830E0
1.294058330E1,1.304158866E-1,-2.951919436E-1,1.121210098E0
1.295047043E1,1.774511337E-1,-2.457133085E-1,1.043021679E0
1.296035757E1,2.171562016E-1,-2.432699203E-1,9.825478196E-1
1.297024470E1,2.208212912E-1,-2.163926363E-1,9.165763259E-1
1.298013179E1,2.745758295E-1,-1.290414780E-1,8.438854814E-1
1.299001892E1,3.142809272E-1,-1.449235082E-1,7.650861740E-1
1.299990606E1,2.971771955E-1,-2.273878902E-1,7.027797699E-1
1.300979319E1,2.849602401E-1,-3.764346242E-1,6.795675755E-1
1.301968033E1,2.996205688E-1,-5.181511641E-1,6.807892919E-1
1.302956747E1,3.014531136E-1,-6.085565686E-1,6.948387623E-1
1.303945460E1,2.855710983E-1,-6.904101372E-1,7.162184119E-1
1.304934174E1,2.739650011E-1,-7.117897868E-1,7.217160463E-1
1.305922887E1,2.635805905E-1,-7.014053464E-1,6.997255087E-1
1.306911595E1,2.513636351E-1,-6.781931520E-1,6.661289334E-1
1.307900309E1,2.727433145E-1,-6.018372774E-1,6.508577466E-1
1.308889022E1,3.179459870E-1,-5.047125220E-1,6.661289334E-1
1.309877736E1,3.405473530E-1,-4.778352678E-1,7.052231431E-1
1.310866450E1,3.790307343E-1,-4.723376334E-1,7.449282408E-1
1.311855163E1,4.334724844E-1,-4.607315361E-1,7.504258752E-1
1.312843877E1,4.597389102E-1,-4.417952895E-1,7.149966955E-1
1.313832590E1,4.438568950E-1,-4.210264683E-1,6.795675755E-1
1.314821304E1,4.261423051E-1,-3.471139669E-1,6.893411279E-1
1.315810012E1,4.475219846E-1,-2.005106062E-1,7.699729800E-1
1.316798726E1,4.762317836E-1,-8.078455180E-2,8.805363178E-1
1.317787439E1,4.621823132E-1,-2.596100792E-3,9.599464536E-1
1.318776153E1,4.395809472E-1,4.016320780E-2,9.929322004E-1
1.319764866E1,4.145362079E-1,4.993676394E-2,9.898779988E-1
1.320753580E1,3.857500553E-1,7.070557028E-2,9.764393568E-1
1.321742293E1,3.570402265E-1,1.183516532E-1,9.648332596E-1
1.322731007E1,3.619270027E-1,1.433963925E-1,9.483403563E-1
1.323719720E1,4.151470661E-1,1.281252056E-1,9.184088707E-1
1.324708434E1,4.762317836E-1,1.012479365E-1,8.561024070E-1
1.325697142E1,4.902812839E-1,7.009471953E-2,7.577560544E-1
1.326685856E1,4.750100970E-1,2.061609551E-2,6.539120078E-1
1.327674569E1,4.560738206E-1,-5.573981255E-2,5.836645365E-1
1.328663283E1,4.304182529E-1,-1.302631795E-1,5.702258945E-1
1.329651997E1,3.925457299E-1,-1.840177327E-1,6.093201637E-1
1.330640710E1,3.521534503E-1,-2.475458533E-1,6.478035450E-1
1.331629424E1,3.252761662E-1,-3.348970115E-1,6.600204706E-1
1.332618137E1,3.142809272E-1,-4.240806997E-1,6.508577466E-1
1.333606851E1,3.106158376E-1,-4.918847680E-1,6.520794630E-1
1.334595564E1,2.971771955E-1,-5.218162537E-1,6.765133142E-1
1.335584272E1,3.100049794E-1,-4.967715442E-1,7.204943299E-1
1.336572986E1,3.191677034E-1,-4.228590131E-1,7.632536292E-1
1.337561700E1,2.965663373E-1,-3.300102353E-1,7.889092565E-1
1.338550413E1,2.690782249E-1,-2.677038014E-1,7.986828089E-1
1.339539127E1,2.428117841E-1,-2.615953386E-1,8.041804433E-1
1.340527840E1,2.269297540E-1,-2.652604282E-1,8.176190853E-1
1.341516554E1,2.324273884E-1,-2.194468826E-1,8.353336453E-1
1.342505267E1,2.397575527E-1,-1.711899489E-1,8.493831158E-1
1.343493981E1,2.379250079E-1,-1.119377613E-1,8.438854814E-1
1.344482689E1,2.250972092E-1,-4.352286831E-2,8.212841153E-1
1.345471403E1,2.238755226E-1,1.084253844E-2,7.919634581E-1
1.346460116E1,2.324273884E-1,5.238015205E-2,7.675296068E-1
1.347448830E1,2.312056869E-1,9.269607067E-2,7.534800768E-1
1.348437543E1,2.220429778E-1,1.122431830E-1,7.504258752E-1
1.349426257E1,2.086043358E-1,1.116323397E-1,7.485933304E-1
1.350414970E1,1.853921413E-1,9.147437662E-2,7.547017932E-1
1.351403684E1,1.621799469E-1,6.154286116E-2,7.779139876E-1
1.352392398E1,1.530172378E-1,5.238015205E-2,8.054021001E-1
1.353381111E1,1.499630064E-1,6.337540597E-2,8.035695553E-1
1.354369825E1,1.554606259E-1,7.314895838E-2,7.589777112E-1
1.355358533E1,1.560714692E-1,9.758284688E-2,6.960604787E-1
1.356347246E1,1.615691036E-1,1.519482583E-1,6.471926570E-1
1.357335960E1,1.768402755E-1,2.185306102E-1,6.050441861E-1
1.358324674E1,1.762294322E-1,2.564031482E-1,5.512896776E-1
1.359313387E1,1.646233350E-1,2.576248348E-1,4.877615273E-1
1.360302101E1,1.572931707E-1,2.344126403E-1,4.431696832E-1
1.361290814E1,1.444653720E-1,2.191414535E-1,4.407263100E-1
1.362279528E1,1.273616552E-1,2.203631550E-1,4.798205197E-1
1.363268241E1,1.127013192E-1,2.289150059E-1,5.366293192E-1
1.364256955E1,1.078145429E-1,2.069245130E-1,5.995466113E-1
1.365245663E1,1.224748790E-1,1.800472289E-1,6.673506498E-1
1.366234377E1,1.450762302E-1,2.264716178E-1,7.162184119E-1
1.367223090E1,1.493521482E-1,2.997733057E-1,7.412631512E-1
1.368211804E1,1.236965731E-1,3.742966652E-1,7.443174124E-1
1.369200517E1,5.711421743E-2,4.585935771E-1,7.156075835E-1
1.370189231E1,-3.939964995E-2,4.995203316E-1,6.233696342E-1
1.371177944E1,-7.482878864E-2,4.366030693E-1,4.602734149E-1
1.372166658E1,-1.374406368E-2,2.728960216E-1,2.849602401E-1
1.373155372E1,5.955760926E-2,1.000262350E-1,1.890572309E-1
1.374144085E1,8.521319181E-2,-6.001574174E-2,2.092151791E-1
1.375132799E1,8.032641560E-2,-1.882936656E-1,3.093941510E-1
1.376121507E1,6.505523622E-2,-3.037438095E-1,4.211791754E-1
1.377110220E1,3.878879920E-2,-4.100312293E-1,4.871506989E-1
1.378098934E1,-2.473931387E-2,-4.845545888E-1,4.761554301E-1
1.379087648E1,-1.316375881E-1,-5.303681493E-1,3.802524209E-1
1.380076361E1,-2.275405973E-1,-5.804576278E-1,2.244863659E-1
1.381065075E1,-2.892361879E-1,-6.213843822E-1,7.482878864E-2
1.382053788E1,-3.301629424E-1,-6.305471063E-1,-1.679829881E-2
1.383042502E1,-3.533751369E-1,-6.128324866E-1,-1.679829881E-2
1.384031215E1,-3.466558158E-1,-5.444176197E-1,6.383354217E-2
1.385019929E1,-3.228327632E-1,-4.387410581E-1,1.933331639E-1
1.386008637E1,-2.953446507E-1,-3.452814221E-1,3.545968235E-1
1.386997351E1,-2.660239935E-1,-2.530434728E-1,5.256340504E-1
1.387986064E1,-2.171562016E-1,-1.687465608E-1,6.844543815E-1
1.388974778E1,-1.530172378E-1,-1.119377613E-1,8.133431077E-1
1.389963491E1,-1.047603041E-1,-4.718795046E-2,8.780929446E-1
1.390952205E1,-8.154810965E-2,3.527642787E-2,8.591566682E-1
1.391940918E1,-8.643488586E-2,1.220167428E-1,7.540909648E-1
1.392929632E1,-1.291942000E-1,2.154763639E-1,5.903838873E-1
1.393918345E1,-2.073826492E-1,3.119902313E-1,4.156815708E-1
1.394907059E1,-2.770192325E-1,3.840702176E-1,2.623589039E-1
1.395895773E1,-2.855710983E-1,4.005630910E-1,1.432436854E-1
1.396884486E1,-2.360924631E-1,3.370349705E-1,5.833591148E-2
1.397873200E1,-1.731752008E-1,2.570139766E-1,-3.054236295E-4
1.398861913E1,-1.188097894E-1,1.867665499E-1,-4.489727318E-2
1.399850622E1,-8.521319181E-2,1.281252056E-1,-8.093725890E-2
1.400839335E1,-8.215895295E-2,1.201841980E-1,-1.084253863E-1
1.401828049E1,-1.304158866E-1,1.995943487E-1,-1.175880954E-1
1.402816762E1,-1.884463727E-1,3.248180151E-1,-9.559759498E-2
1.403805476E1,-1.872246861E-1,4.133908749E-1,-5.894676223E-2
1.404794189E1,-1.206423342E-1,4.451549351E-1,-4.306473210E-2
1.405782903E1,-2.473931387E-2,4.787515402E-1,-5.772506446E-2
1.406771616E1,4.428642616E-2,5.288410187E-1,-7.299624383E-2
1.407760330E1,7.299624383E-2,5.770979524E-1,-3.634541109E-2
1.408749043E1,1.078145429E-1,6.088619828E-1,5.528167635E-2
1.409737757E1,1.786728203E-1,6.241331697E-1,1.261399537E-1
1.410726541E1,2.562504113E-1,6.137487888E-1,1.102579311E-1
1.411715255E1,2.855710983E-1,5.942016840E-1,-4.062134400E-2
1.412703963E1,2.464768738E-1,5.673243999E-1,-2.702999115E-1
1.413692676E1,1.707318127E-1,5.477772951E-1,-4.804313779E-1
1.414681390E1,9.865183383E-2,5.471664071E-1,-6.435275674E-1
1.415670114E1,5.405998230E-2,5.642701387E-1,-7.840224504E-1
1.416658828E1,4.001049697E-2,5.984776020E-1,-9.165763259E-1
1.417647541E1,4.917320609E-2,6.223006248E-1,-1.050428271E0
1.418636255E1,7.910472155E-2,6.387935281E-1,-1.220854640E0
1.419624968E1,1.120904684E-1,6.742226481E-1,-1.459695935E0
1.420613682E1,1.010952219E-1,7.311078310E-1,-1.682044268E0
1.421602395E1,1.985253580E-2,8.105179667E-1,-1.812154770E0
1.422591109E1,-9.193251282E-2,9.045884609E-1,-1.887899756E0
1.423579822E1,-1.688992679E-1,9.210813046E-1,-1.965477467E0
1.424568536E1,-2.079934925E-1,8.508338928E-1,-2.096809626E0
1.425557250E1,-2.531961799E-1,7.634826899E-1,-2.300832510E0
1.426545963E1,-3.124483824E-1,6.882721782E-1,-2.559221029E0
1.427534671E1,-3.985778391E-1,6.088619828E-1,-2.860368729E0
1.428523385E1,-5.244123936E-1,5.227325559E-1,-3.163959742E0
1.429512098E1,-6.496360302E-1,4.604261220E-1,-3.391805649E0
1.430500812E1,-7.534800768E-1,4.414898455E-1,-3.484043598E0
1.431489526E1,-8.273926377E-1,4.781406820E-1,-3.404633522E0
1.432478239E1,-8.524373770E-1,5.587725043E-1,-3.170068264E0
1.433466953E1,-8.163973689E-1,6.253548861E-1,-2.868920565E0
1.434455666E1,-7.290462255E-1,5.807630420E-1,-2.609921217E0
1.435444380E1,-6.349757314E-1,4.616478086E-1,-2.466372252E0
1.436433093E1,-5.647283196E-1,3.132119179E-1,-2.463317871E0
1.437421807E1,-5.274665952E-1,1.782146841E-1,-2.573270321E0
1.438410520E1,-5.347967744E-1,8.292251825E-2,-2.740642548E0
1.439399234E1,-5.903838873E-1,4.260659590E-2,-2.901295424E0
1.440387947E1,-6.661289334E-1,4.504998401E-2,-2.975208044E0
1.441376661E1,-6.985038519E-1,7.192726433E-2,-2.913512468E0
1.442365375E1,-6.514685750E-1,1.440072358E-1,-2.716208696E0
1.443354088E1,-5.366293192E-1,3.040492237E-1,-2.449268341E0
1.444342802E1,-4.126273096E-1,4.488200247E-1,-2.190269232E0
1.445331510E1,-3.368822634E-1,5.080721974E-1,-1.992965579E0
1.446320229E1,-3.069507480E-1,4.653128982E-1,-1.887899756E0
1.447308937E1,-2.648022771E-1,3.504736125E-1,-1.846362233E0
1.448297651E1,-1.982199401E-1,2.160872221E-1,-1.820095778E0
1.449286364E1,-1.365243644E-1,1.018587798E-1,-1.798716068E0
1.450275078E1,-9.132166207E-2,4.321744293E-2,-1.789553404E0
1.451263791E1,-7.421794534E-2,4.566083103E-2,-1.770006299E0
1.452252505E1,-7.482878864E-2,1.714953631E-1,-1.693039536E0
1.453241218E1,-5.711421743E-2,3.242071867E-1,-1.495125055E0
1.454229932E1,-9.468132630E-3,4.592044353E-1,-1.171375990E0
1.455218645E1,3.084778599E-2,5.758762360E-1,-8.194515705E-1
1.456207359E1,5.039490014E-2,6.455128193E-1,-5.482354164E-1
1.457196072E1,6.444438547E-2,6.485670805E-1,-4.089622498E-1
1.458184786E1,9.254335612E-2,5.636593103E-1,-3.796415627E-1
1.459173500E1,1.145338640E-1,4.359922409E-1,-4.224008918E-1
1.460162213E1,1.261399537E-1,3.009949923E-1,-5.054761171E-1
1.461150926E1,1.249182671E-1,1.501157135E-1,-5.897729993E-1
1.462139640E1,1.084253863E-1,7.177455351E-3,-6.374191046E-1
1.463128354E1,1.004843712E-1,-1.192679256E-1,-6.227588058E-1
1.464117062E1,1.133121699E-1,-2.218902707E-1,-5.268557668E-1
1.465105776E1,1.236965731E-1,-2.866400778E-1,-3.558185399E-1
1.466094489E1,1.304158866E-1,-3.184041381E-1,-1.505738497E-1
1.467083203E1,1.505738497E-1,-3.587200642E-1,5.955760926E-2
1.468071916E1,1.750077456E-1,-4.662291706E-1,2.702999115E-1
1.469060630E1,1.963873953E-1,-6.360446811E-1,4.608842432E-1
1.470049343E1,2.257080674E-1,-8.376243114E-1,6.044333577E-1
1.471038057E1,3.002314270E-1,-1.001942158E0,7.021689415E-1
1.472026770E1,3.894914687E-1,-1.125944257E0,7.272136807E-1
1.473015484E1,4.169796109E-1,-1.146102190E0,6.184828281E-1
1.474004197E1,2.965663373E-1,-8.913788795E-1,4.254551232E-1
1.474992911E1,1.878355294E-1,-4.527905285E-1,3.429907262E-1
1.475981625E1,3.032856584E-1,3.405473381E-2,5.341859460E-1
1.476970338E1,5.250995755E-1,4.824166298E-1,8.762603998E-1
1.477959052E1,6.216134429E-1,7.213342786E-1,1.130372882E0
1.478947765E1,5.287646651E-1,5.599942207E-1,1.173132181E0
1.479936479E1,3.674246371E-1,1.470614821E-1,9.568922520E-1
1.480925192E1,2.861819267E-1,-1.956238300E-1,6.019899845E-1
1.481913906E1,3.698680103E-1,-2.988570333E-1,3.558185399E-1
1.482902619E1,5.196019411E-1,-2.157817930E-1,3.374931216E-1
1.483891333E1,5.874059796E-1,-5.085303262E-2,4.963133931E-1
1.484880046E1,5.324297547E-1,6.337540597E-2,6.734591126E-1
1.485868760E1,4.298073947E-1,1.043021679E-1,7.314895988E-1
1.486857468E1,3.374931216E-1,1.067455560E-1,6.594096422E-1
1.487846182E1,2.574721277E-1,1.030804738E-1,5.384618640E-1
1.488834895E1,1.817270666E-1,1.378987730E-1,4.547757804E-1
1.489823609E1,1.353026628E-1,1.641651988E-1,4.657710493E-1
1.490812322E1,1.212531775E-1,1.708845198E-1,5.525113344E-1
1.491801036E1,1.206423342E-1,1.562241912E-1,6.520794630E-1
1.492789750E1,1.139230132E-1,1.299577504E-1,7.076665759E-1
1.493778463E1,1.065928489E-1,8.964183182E-2,7.211052179E-1
1.494767176E1,1.304158866E-1,7.253811508E-2,7.290462255E-1
1.495755890E1,1.805053651E-1,8.536590636E-2,7.443174124E-1
1.496744604E1,1.982199401E-1,9.269607067E-2,7.583668828E-1
1.497733317E1,1.737860441E-1,8.903098851E-2,7.547017932E-1
1.498722031E1,1.627907902E-1,7.192726433E-2,7.272136807E-1
1.499710744E1,1.805053651E-1,4.138490185E-2,6.820109487E-1
1.500699458E1,2.134911120E-1,-1.985253533E-3,6.331431866E-1
1.501688171E1,2.568612695E-1,-2.702999115E-2,5.989357233E-1
1.502676885E1,2.702999115E-1,-4.413371533E-2,5.897729993E-1
1.503665598E1,2.428117841E-1,-7.589777559E-2,6.038225293E-1
1.504654312E1,2.006633282E-1,-8.261708915E-2,6.221479177E-1
1.505643026E1,1.701209545E-1,-5.940489471E-2,6.581879258E-1
1.506631739E1,1.676775664E-1,-5.207473040E-2,7.375980616E-1
1.507620453E1,1.866138428E-1,-5.451811850E-2,8.506048322E-1
1.508609166E1,1.957765520E-1,-6.306997687E-2,9.538379908E-1
1.509597880E1,1.896680743E-1,-5.329642445E-2,1.001484036E0
1.510586593E1,1.762294322E-1,-9.055810422E-2,9.849911928E-1
1.511575307E1,1.572931707E-1,-1.772984117E-1,9.397885203E-1
1.512564020E1,1.688992679E-1,-2.432699203E-1,9.013051391E-1
1.513552734E1,1.902789176E-1,-2.915268540E-1,8.756495714E-1
1.514541447E1,1.951656938E-1,-3.312319219E-1,8.530482054E-1
1.515530156E1,1.933331639E-1,-3.709369898E-1,8.316685557E-1
1.516518869E1,1.896680743E-1,-4.393518865E-1,8.115105629E-1
1.517507583E1,1.896680743E-1,-5.431959033E-1,8.054021001E-1
1.518496296E1,1.933331639E-1,-6.482616663E-1,8.389987350E-1
1.519485010E1,1.915006191E-1,-7.001836896E-1,9.153546095E-1
1.520473723E1,1.847812980E-1,-6.989619732E-1,1.001484036E0
1.521462437E1,1.701209545E-1,-6.525375843E-1,1.055849433E0
1.522451150E1,1.475196183E-1,-5.993938446E-1,1.050351858E0
1.523439864E1,1.359135211E-1,-5.535803437E-1,9.965972900E-1
1.524428578E1,1.395785958E-1,-5.431959033E-1,9.318475127E-1
1.525417291E1,1.481304616E-1,-5.645755529E-1,8.872556686E-1
1.526406005E1,1.652341783E-1,-6.256603003E-1,8.603783846E-1
1.527394718E1,1.890572309E-1,-7.124006152E-1,8.463288546E-1
1.528383432E1,2.012741715E-1,-7.899782062E-1,8.579349518E-1
1.529372145E1,2.031067163E-1,-8.021951914E-1,9.019159675E-1
1.530360859E1,2.024958730E-1,-7.148439884E-1,9.776610136E-1
1.531349572E1,2.000524700E-1,-5.352548957E-1,1.063179612E0
1.532338286E1,1.969982386E-1,-3.642176688E-1,1.126707792E0
1.533327000E1,2.018850148E-1,-2.334963679E-1,1.142589808E0
1.534315713E1,2.177670449E-1,-1.284306347E-1,1.111436605E0
1.535304427E1,2.238755226E-1,-8.567132801E-2,1.068677306E0
1.536293140E1,2.220429778E-1,-1.180462316E-1,1.030804753E0
1.537281854E1,2.116585821E-1,-1.669140160E-1,1.008814216E0
1.538270567E1,1.927223057E-1,-1.974563748E-1,1.028361320E0
1.539259281E1,1.915006191E-1,-2.017323077E-1,1.084559321E0
1.540247994E1,2.098260373E-1,-1.479777545E-1,1.143200636E0
1.541236708E1,2.299840003E-1,-5.268557742E-2,1.156639338E0
1.542225421E1,2.342599183E-1,5.238015205E-2,1.088835239E0
1.543214135E1,2.281514555E-1,1.440072358E-1,9.544488192E-1
1.544202848E1,2.141019702E-1,1.983726472E-1,8.231166601E-1
1.545191562E1,2.049392611E-1,2.307475507E-1,7.394306064E-1
1.546180276E1,2.128802687E-1,2.533488870E-1,7.369872332E-1
1.547168989E1,2.299840003E-1,2.728960216E-1,8.066238165E-1
1.548157703E1,2.452551723E-1,2.820587158E-1,9.086353183E-1
1.549146416E1,2.397575527E-1,2.606790662E-1,9.856020808E-1
1.550135130E1,1.969982386E-1,1.995943487E-1,1.015533566E0
1.551123843E1,1.560714692E-1,1.110214889E-1,1.022252917E0
1.552112557E1,1.481304616E-1,3.344388679E-2,1.023474574E0
1.553101270E1,1.548497826E-1,-6.261184346E-3,1.003316641E0
1.554089984E1,1.640124917E-1,4.123218823E-3,9.391776323E-1
1.555078697E1,1.603474021E-1,2.733541466E-2,8.493831158E-1
1.556067411E1,1.511846930E-1,5.787777901E-2,7.687512636E-1
1.557056124E1,1.640124917E-1,8.597674966E-2,7.046123147E-1
1.558044838E1,1.627907902E-1,1.030804738E-1,6.533011198E-1
1.559033552E1,1.151447073E-1,1.495048702E-1,6.245913506E-1
1.560022265E1,9.865183383E-2,1.843231618E-1,6.190937161E-1
1.561010979E1,1.444653720E-1,1.128540337E-1,6.325323582E-1
1.561999692E1,1.817270666E-1,4.581354442E-4,6.392516494E-1
1.562988406E1,1.627907902E-1,-6.123743951E-2,5.995466113E-1
1.563977114E1,8.032641560E-2,-1.461452097E-1,5.262449384E-1
1.564965833E1,-1.679829881E-2,-2.371614426E-1,4.340069890E-1
1.565954541E1,-6.139015034E-2,-2.677038014E-1,3.399364948E-1
1.566943260E1,-7.727217674E-2,-2.811424434E-1,2.702999115E-1
1.567931968E1,-1.029277667E-1,-3.165715933E-1,2.037175596E-1
1.568920682E1,-1.267508119E-1,-3.550549746E-1,1.365243644E-1
1.569909395E1,-1.194206402E-1,-3.733803928E-1,9.071081877E-2
1.570898109E1,-1.065928489E-1,-4.075878263E-1,9.132166207E-2
1.571886822E1,-1.023169160E-1,-4.399627447E-1,1.408002973E-1
1.572875536E1,-1.102579311E-1,-4.821111858E-1,2.183778882E-1
1.573864250E1,-1.310267299E-1,-5.279247165E-1,2.886253297E-1
1.574852968E1,-1.456870735E-1,-5.187620521E-1,3.289412558E-1
1.575841682E1,-1.346918195E-1,-4.741701782E-1,3.472666740E-1
1.576830390E1,-1.206423342E-1,-4.081986845E-1,3.600944579E-1
1.577819104E1,-1.084253863E-1,-2.951919436E-1,3.692571819E-1
1.578807817E1,-1.010952219E-1,-1.901262105E-1,3.680354655E-1
1.579796531E1,-9.926267713E-2,-1.265980899E-1,3.350497186E-1
1.580785244E1,-1.041494608E-1,-9.727742523E-2,2.648022771E-1
1.581773958E1,-1.127013192E-1,-8.994726092E-2,1.811162084E-1
1.582762671E1,-1.298050433E-1,-8.811471611E-2,1.145338640E-1
1.583751385E1,-1.432436854E-1,-7.528692484E-2,1.004843712E-1
1.584740098E1,-1.389677525E-1,-6.184828654E-2,1.499630064E-1
1.585728812E1,-1.255291104E-1,-4.474456236E-2,2.159345001E-1
1.586717526E1,-1.169772521E-1,-9.926267900E-3,2.580829561E-1
1.587706239E1,-1.127013192E-1,3.283303976E-2,2.629697323E-1
1.588694953E1,-1.114796251E-1,5.421269313E-2,2.476985604E-1
1.589683666E1,-1.059819981E-1,6.520794332E-2,2.250972092E-1
1.590672380E1,-8.460234851E-2,8.292251825E-2,1.969982386E-1
1.591661093E1,-5.589252338E-2,7.559234649E-2,1.621799469E-1
1.592649807E1,-3.390202299E-2,3.344388679E-2,1.371352077E-1
1.593638520E1,-2.962609194E-2,-6.872031838E-3,1.334701329E-1
1.594627234E1,-2.107422985E-2,9.620844387E-3,1.414111406E-1
1.595615947E1,1.068982668E-2,7.986827940E-2,1.658450365E-1
1.596604661E1,6.200099736E-2,1.488940120E-1,1.847812980E-1
1.597593374E1,1.041494608E-1,1.427855492E-1,1.664558798E-1
1.598582088E1,1.328592747E-1,5.543438718E-2,1.084253863E-1
1.599570802E1,1.530172378E-1,-6.490252167E-2,3.573456407E-2
1.600559515E1,1.487413049E-1,-1.827960461E-1,-1.985253580E-2
1.601548229E1,1.102579311E-1,-2.573194206E-1,-4.917320609E-2
1.602536942E1,6.933116168E-2,-2.744231224E-1,-5.955760926E-2
1.603525656E1,5.833591148E-2,-2.371614426E-1,-5.955760926E-2
1.604514369E1,6.444438547E-2,-1.834068894E-1,-6.322269142E-2
1.605503083E1,5.222744122E-2,-1.320957243E-1,-8.643488586E-2
1.606491796E1,1.313321572E-2,-7.528692484E-2,-1.365243644E-1
1.607480510E1,-3.084778599E-2,1.084253844E-2,-2.104368806E-1
1.608469223E1,-6.200099736E-2,1.433963925E-1,-3.191677034E-1
1.609457937E1,-9.376505762E-2,2.899997234E-1,-4.779879749E-1
1.610446650E1,-1.353026628E-1,4.298837483E-1,-6.594096422E-1
1.611435364E1,-1.750077456E-1,5.728220344E-1,-8.414421082E-1
1.612424078E1,-1.908897758E-1,6.975111961E-1,-1.016220808E0
1.613412791E1,-2.012741715E-1,7.720345855E-1,-1.177484393E0
1.614401505E1,-2.379250079E-1,8.196806908E-1,-1.311870813E0
1.615390218E1,-2.959555089E-1,8.618291020E-1,-1.415104032E0
1.616378937E1,-3.436015844E-1,8.807653785E-1,-1.498179317E0
1.617367650E1,-3.741439581E-1,8.514447212E-1,-1.587973833E0
1.618356364E1,-4.211791754E-1,7.799755931E-1,-1.730301261E0
1.619345078E1,-4.877615273E-1,7.146149278E-1,-1.977694392E0
1.620333791E1,-5.799994469E-1,7.036196589E-1,-2.317936182E0
1.621322505E1,-7.058340311E-1,7.573742270E-1,-2.653291464E0
1.622311213E1,-8.011261821E-1,8.789328337E-1,-2.836545706E0
1.623299932E1,-8.292251825E-1,9.876636863E-1,-2.840821505E0
1.624288645E1,-8.072346449E-1,1.013319254E0,-2.756524563E0
1.625277359E1,-7.791357040E-1,9.418501258E-1,-2.682001352E0
1.626266072E1,-7.748597264E-1,8.044095039E-1,-2.683833838E0
1.627254786E1,-8.060129285E-1,6.522321701E-1,-2.730869055E0
1.628243500E1,-8.383878469E-1,5.117372870E-1,-2.761411428E0
1.629232213E1,-8.383878469E-1,3.602471650E-1,-2.757746220E0
1.630220927E1,-8.188407421E-1,2.295258641E-1,-2.756524563E0
1.631209640E1,-8.005153537E-1,1.495048702E-1,-2.765687227E0
1.632198354E1,-7.724163532E-1,9.025268257E-2,-2.776682615E0
1.633187067E1,-7.266027927E-1,4.077405483E-2,-2.806614161E0
1.634175781E1,-7.046123147E-1,-2.519745007E-2,-2.859757900E0
1.635164494E1,-7.058340311E-1,-6.734590977E-2,-2.899462938E0
1.636153208E1,-6.600204706E-1,2.901524538E-3,-2.853038549E0
1.637141921E1,-5.488462448E-1,1.336228400E-1,-2.664897442E0
1.638130635E1,-4.468347728E-1,2.185306102E-1,-2.369247437E0
1.639119348E1,-3.845283389E-1,2.166980654E-1,-2.071764946E0
1.640108062E1,-3.497100472E-1,1.831014603E-1,-1.834145308E0
1.641096776E1,-2.983988822E-1,1.574458778E-1,-1.686320186E0
1.642085489E1,-2.422009408E-1,9.880454093E-2,-1.611186028E0
1.643074203E1,-2.024958730E-1,2.061609551E-2,-1.562318206E0
1.644062916E1,-1.530172378E-1,-2.397575416E-2,-1.485962272E0
1.645051630E1,-8.521319181E-2,-7.635590737E-4,-1.355851889E0
1.646040343E1,-5.803049076E-3,1.110214889E-1,-1.193977356E0
1.647029057E1,6.444438547E-2,2.392994165E-1,-1.011944890E0
1.648017770E1,1.243074164E-1,3.675773442E-1,-8.218950033E-1
1.649006484E1,1.743968874E-1,5.080721974E-1,-6.349757314E-1
1.649995197E1,2.073826492E-1,6.216897964E-1,-4.492781460E-1
1.650983911E1,2.183778882E-1,6.644490957E-1,-2.867927849E-1
1.651972624E1,2.257080674E-1,6.198572516E-1,-1.597365588E-1
1.652961338E1,2.214321345E-1,4.781406820E-1,-6.016845629E-2
1.653950052E1,2.092151791E-1,2.582356930E-1,3.878879920E-2
1.654938765E1,2.171562016E-1,1.328592747E-2,1.481304616E-1
1.655927479E1,2.574721277E-1,-2.108950168E-1,2.837385535E-1
1.656916192E1,3.191677034E-1,-3.532224298E-1,4.395045936E-1
1.657904906E1,3.521534503E-1,-4.198047817E-1,5.848862529E-1
1.658893619E1,3.472666740E-1,-4.088095427E-1,6.581879258E-1
1.659882333E1,3.185568452E-1,-3.355078697E-1,6.154286265E-1
1.660871046E1,2.727433145E-1,-3.165715933E-1,4.889832437E-1
1.661859760E1,2.208212912E-1,-3.648285270E-1,3.741439581E-1
1.662848473E1,2.012741715E-1,-3.843756318E-1,3.991886973E-1
1.663837187E1,2.678565085E-1,-3.104631305E-1,6.026008129E-1
1.664825900E1,3.955999613E-1,-1.577513069E-1,8.982508779E-1
1.665814614E1,4.976114631E-1,-6.734590977E-2,1.181684017E0
1.666803333E1,5.312080383E-1,-1.430909634E-1,1.338060975E0
1.667792046E1,4.768426418E-1,-2.732014358E-1,1.290414810E0
1.668780760E1,3.680354655E-1,-3.440597057E-1,1.080283403E0
1.669769468E1,2.825168669E-1,-2.884726226E-1,8.176190853E-1
1.670758187E1,2.654131353E-1,-1.626380831E-1,6.215370893E-1
1.671746900E1,3.075616062E-1,9.009997360E-3,5.317425132E-1
1.672735614E1,3.527642787E-1,1.867665499E-1,5.341859460E-1
1.673724328E1,3.619270027E-1,2.985515893E-1,5.958815217E-1
1.674713041E1,3.313846290E-1,3.071034551E-1,6.526902914E-1
1.675701755E1,2.788517773E-1,1.824906170E-1,6.581879258E-1
1.676690468E1,2.422009408E-1,1.634016447E-2,5.946598053E-1
1.677679182E1,2.238755226E-1,-1.174353883E-1,5.054761171E-1
1.678667895E1,2.067717910E-1,-1.870719790E-1,4.327852726E-1
1.679656609E1,1.908897758E-1,-1.779092699E-1,4.040754735E-1
1.680645322E1,1.658450365E-1,-1.119377613E-1,4.376720488E-1
1.681634036E1,1.426328421E-1,-6.062658876E-2,5.360184908E-1
1.682622750E1,1.181989461E-1,-1.236965694E-2,6.416950226E-1
1.683611463E1,6.322269142E-2,2.916795574E-2,6.899519563E-1
1.684600176E1,1.435491070E-2,9.009997360E-3,6.716265678E-1
1.685588890E1,9.468132630E-3,-8.628217876E-2,6.343649030E-1
1.686577604E1,5.039490014E-2,-2.005106062E-1,6.142069101E-1
1.687566317E1,1.224748790E-1,-3.110739589E-1,6.294780970E-1
1.688555031E1,1.798945218E-1,-4.130854607E-1,6.710157394E-1
1.689543744E1,1.927223057E-1,-4.711159468E-1,7.156075835E-1
1.690532458E1,1.927223057E-1,-4.857762754E-1,7.461498976E-1
1.691521171E1,1.896680743E-1,-4.833329022E-1,7.430956960E-1
1.692509885E1,1.915006191E-1,-4.375193417E-1,7.076665759E-1
1.693498598E1,2.073826492E-1,-3.855973184E-1,6.697940230E-1
1.694487312E1,2.324273884E-1,-3.410054743E-1,6.575770974E-1
1.695476026E1,2.568612695E-1,-2.713688910E-1,6.734591126E-1
1.696464739E1,2.684673667E-1,-2.182251811E-1,7.040014863E-1
1.697453453E1,2.495311052E-1,-2.536543310E-1,7.278245091E-1
1.698442166E1,2.238755226E-1,-2.854183912E-1,7.186617851E-1
1.699430885E1,2.318165302E-1,-2.774773538E-1,6.856760383E-1
1.700419598E1,2.483094037E-1,-2.622061968E-1,6.502469182E-1
1.701408312E1,2.379250079E-1,-2.420482337E-1,6.178719997E-1
1.702397026E1,2.293731421E-1,-2.420482337E-1,5.922164321E-1
1.703385739E1,2.318165302E-1,-2.683146596E-1,5.824428797E-1
1.704374453E1,2.330382317E-1,-2.927485406E-1,5.830537081E-1
1.705363166E1,2.293731421E-1,-3.141281903E-1,5.885513425E-1
1.706351880E1,2.324273884E-1,-3.342861533E-1,6.007682681E-1
1.707340593E1,2.550287247E-1,-3.642176688E-1,6.087092757E-1
1.708329307E1,2.812951505E-1,-4.362976551E-1,6.074876189E-1
1.709318020E1,2.788517773E-1,-5.010474920E-1,5.879405141E-1
1.710306734E1,2.458660156E-1,-5.297572613E-1,5.635066032E-1
1.711295447E1,2.098260373E-1,-5.254813433E-1,5.616740584E-1
1.712284161E1,1.927223057E-1,-5.016583204E-1,5.891621709E-1
1.713272874E1,1.817270666E-1,-4.607315361E-1,6.337540150E-1
1.714261588E1,1.615691036E-1,-4.100312293E-1,6.844543815E-1
1.715250302E1,1.536280811E-1,-3.721587062E-1,7.272136807E-1
1.716239015E1,1.640124917E-1,-3.501681983E-1,7.577560544E-1
1.717227729E1,1.731752008E-1,-3.208475113E-1,7.693621516E-1
1.718216442E1,1.481304616E-1,-3.061871827E-1,7.644753456E-1
1.719205156E1,1.218640283E-1,-2.939702570E-1,7.516475320E-1
1.720193869E1,1.127013192E-1,-2.994678617E-1,7.534800768E-1
1.721182588E1,1.053711548E-1,-3.245126009E-1,7.773031592E-1
1.722171302E1,8.887827396E-2,-3.306210935E-1,8.035695553E-1
1.723160015E1,6.322269142E-2,-3.055763543E-1,8.206732869E-1
1.724148729E1,5.100574717E-2,-2.383831441E-1,8.328902125E-1
1.725137442E1,5.528167635E-2,-1.675248593E-1,8.542698622E-1
1.726126156E1,7.299624383E-2,-9.727742523E-2,8.768712282E-1
1.727114869E1,7.605048269E-2,-2.153236605E-2,8.829796910E-1
1.728103583E1,6.139015034E-2,4.382828996E-2,8.609892130E-1
1.729092296E1,4.611896724E-2,1.171299592E-1,8.133431077E-1
1.730081010E1,3.878879920E-2,1.953184158E-1,7.583668828E-1
1.731069723E1,4.001049697E-2,2.912214398E-1,7.149966955E-1
1.732058437E1,4.184303805E-2,4.036173224E-1,6.923953891E-1
1.733047151E1,4.611896724E-2,4.952444136E-1,6.752916574E-1
1.734035864E1,5.528167635E-2,5.569399595E-1,6.465818286E-1
1.735024578E1,6.077930331E-2,5.642701387E-1,6.190937161E-1
1.736013291E1,6.933116168E-2,5.276193023E-1,6.117635369E-1
1.737002005E1,8.460234851E-2,4.793623984E-1,5.977140665E-1
1.737990718E1,9.926267713E-2,4.213318825E-1,5.628957748E-1
1.738979432E1,7.788302749E-2,3.565820754E-1,5.152496696E-1
1.739968145E1,2.473931387E-2,3.187095523E-1,4.785988331E-1
1.740956864E1,-1.252236869E-2,3.254288733E-1,4.926483035E-1
1.741945578E1,-2.535016090E-2,3.859027624E-1,5.641174316E-1
1.742934291E1,-2.779355086E-2,5.044071078E-1,6.563553810E-1
1.743923005E1,-5.039490014E-2,5.887040496E-1,7.040014863E-1
1.744911718E1,-5.894676223E-2,4.976878166E-1,6.710157394E-1
1.745900432E1,-1.618745178E-2,2.594573796E-1,5.995466113E-1
1.746889145E1,6.413896102E-3,-3.680354729E-2,5.635066032E-1
1.747877859E1,-4.184303805E-2,-2.896943092E-1,5.952706337E-1
1.748866572E1,-9.071081877E-2,-4.362976551E-1,7.101099491E-1
1.749855286E1,-9.376505762E-2,-4.937172830E-1,8.945857882E-1
1.750844000E1,-6.627693027E-2,-5.120427012E-1,1.091889501E0
1.751832713E1,-3.939964995E-2,-5.108210444E-1,1.206728816E0
1.752821427E1,-1.924168877E-2,-5.334223509E-1,1.204896212E0
1.753810140E1,-4.581354558E-3,-5.621321797E-1,1.089446068E0
1.754798854E1,-1.130067464E-2,-5.688515306E-1,9.098569751E-1
1.755787567E1,-2.046338283E-2,-5.150969625E-1,7.479824424E-1
1.756776281E1,-3.512371704E-2,-4.149180055E-1,6.416950226E-1
1.757765000E1,-6.749862432E-2,-3.104631305E-1,5.934380889E-1
1.758753713E1,-1.169772521E-1,-2.060082406E-1,5.940489769E-1
1.759742426E1,-1.780619770E-1,-1.094943732E-1,6.294780970E-1
1.760731140E1,-2.183778882E-1,-4.413371533E-2,6.820109487E-1
1.761719854E1,-2.183778882E-1,-1.603474095E-2,7.113316059E-1
1.762708567E1,-1.927223057E-1,-5.650337320E-3,7.094991207E-1
1.763697281E1,-1.511846930E-1,1.068982761E-3,6.966713071E-1
1.764685994E1,-1.090362370E-1,2.000524849E-2,6.966713071E-1
1.765674708E1,-8.399149776E-2,8.597674966E-2,7.198835015E-1
1.766663421E1,-7.177454978E-2,1.794363856E-1,7.302678823E-1
1.767652135E1,-4.428642616E-2,2.735068500E-1,6.710157394E-1
1.768640848E1,3.359660041E-3,3.229855001E-1,5.341859460E-1
1.769629562E1,4.489727318E-2,3.199312389E-1,3.545968235E-1
1.770618276E1,5.467082933E-2,3.193204105E-1,1.915006191E-1
1.771606989E1,5.405998230E-2,3.358132839E-1,8.582404256E-2
1.772595708E1,5.589252338E-2,3.596363366E-1,4.245388508E-2
1.773584421E1,5.161659420E-2,3.840702176E-1,4.978405312E-2
1.774573135E1,5.894676223E-2,3.749074936E-1,8.154810965E-2
1.775561848E1,8.826743066E-2,3.254288733E-1,1.059819981E-1
1.776550562E1,1.249182671E-1,2.808370292E-1,9.498675168E-2
1.777539276E1,1.560714692E-1,2.515163720E-1,5.894676223E-2
1.778527989E1,1.707318127E-1,2.478512824E-1,1.557660475E-2
1.779516703E1,1.670667231E-1,2.484621257E-1,-4.062134400E-2
1.780505416E1,1.597365588E-1,2.301367074E-1,-1.133121699E-1
1.781494130E1,1.572931707E-1,1.733279079E-1,-1.927223057E-1
1.782482843E1,1.572931707E-1,7.986827940E-2,-2.702999115E-1
1.783471557E1,1.371352077E-1,-1.298050396E-2,-3.411581814E-1
1.784460270E1,9.681928903E-2,-7.956285775E-2,-3.814741075E-1
1.785448984E1,8.032641560E-2,-8.383878320E-2,-3.924693763E-1
1.786437703E1,9.071081877E-2,-3.558185324E-2,-3.698680103E-1
1.787426416E1,1.120904684E-1,1.572931744E-2,-3.173351586E-1
1.788415130E1,1.169772521E-1,2.977880463E-2,-2.672456801E-1
1.789403843E1,8.826743066E-2,4.993676394E-2,-2.483094037E-1
1.790392557E1,2.473931387E-2,8.597674966E-2,-2.764083743E-1
1.791381270E1,-8.032641560E-2,1.177408099E-1,-3.222219348E-1
1.792369984E1,-1.774511337E-1,1.629435122E-1,-3.686463237E-1
1.793358697E1,-2.220429778E-1,2.136438340E-1,-4.272876680E-1
1.794347411E1,-2.159345001E-1,2.588465214E-1,-5.268557668E-1
1.795336124E1,-1.902789176E-1,2.881672084E-1,-6.826218367E-1
1.796324838E1,-1.725643575E-1,3.028275371E-1,-8.811471462E-1
1.797313552E1,-1.725643575E-1,3.260397315E-1,-1.092576623E0
1.798302265E1,-2.257080674E-1,3.865135908E-1,-1.263613939E0
1.799290979E1,-3.124483824E-1,4.775298536E-1,-1.343024015E0
1.800279697E1,-3.674246371E-1,5.502206683E-1,-1.361960292E0
1.801268411E1,-3.869717419E-1,5.935907960E-1,-1.388226748E0
1.802257124E1,-3.924693763E-1,6.345176101E-1,-1.450533152E0
1.803245838E1,-4.052971601E-1,6.730009913E-1,-1.566594124E0
1.804234552E1,-4.382829070E-1,7.237776518E-1,-1.754124284E0
1.805223265E1,-4.883723855E-1,7.848623991E-1,-2.003350019E0
1.806211979E1,-5.360184908E-1,8.508338928E-1,-2.259294987E0
1.807200692E1,-5.690042377E-1,9.210813046E-1,-2.487751722E0
1.808189406E1,-5.830537081E-1,9.846094251E-1,-2.661843300E0
1.809178119E1,-5.683933496E-1,1.008432508E0,-2.762022257E0
1.810166833E1,-5.427377820E-1,1.014540911E0,-2.783401966E0
1.811155546E1,-5.036435723E-1,1.020038605E0,-2.740642548E0
1.812144265E1,-4.443913698E-1,9.846094251E-1,-2.656345606E0
1.813132979E1,-3.814741075E-1,8.874847293E-1,-2.561664343E0
1.814121692E1,-3.258870244E-1,7.414922118E-1,-2.492027760E0
1.815110406E1,-2.794626355E-1,5.667135715E-1,-2.466983080E0
1.816099119E1,-2.464768738E-1,3.987305462E-1,-2.495692730E0
1.817087833E1,-2.489202619E-1,2.808370292E-1,-2.569605350E0
1.818076546E1,-2.941229641E-1,2.118112892E-1,-2.639852762E0
1.819065260E1,-3.368822634E-1,1.934858710E-1,-2.654513121E0
1.820053973E1,-3.411581814E-1,2.423536479E-1,-2.558610201E0
1.821042687E1,-3.130592108E-1,3.681881726E-1,-2.331985712E0
1.822031401E1,-2.611372173E-1,4.940227270E-1,-2.036335707E0
1.823020114E1,-2.018850148E-1,5.086830258E-1,-1.759621859E0
1.824008833E1,-1.377460510E-1,4.274403751E-1,-1.547657847E0
1.824997546E1,-8.032641560E-2,3.150444627E-1,-1.419990778E0
1.825986260E1,-4.489727318E-2,1.940967143E-1,-1.344856620E0
1.826974973E1,-1.924168877E-2,6.642963737E-2,-1.276441693E0
1.827963687E1,3.054236295E-4,-2.336490713E-2,-1.209248543E0
1.828952400E1,3.359660041E-3,-6.001574174E-2,-1.148163795E0
1.829941114E1,3.054236295E-4,-5.757235363E-2,-1.091354966E0
1.830929828E1,1.985253580E-2,-2.214321308E-2,-1.021718383E0
1.831918541E1,5.222744122E-2,5.054761097E-2,-9.220739603E-1
1.832907255E1,8.887827396E-2,1.366770715E-1,-7.840224504E-1
1.833895968E1,1.194206402E-1,1.733279079E-1,-6.123743653E-1
1.834884682E1,1.340809762E-1,1.281252056E-1,-4.388937652E-1
1.835873401E1,1.371352077E-1,2.977880463E-2,-2.861819267E-1
1.836862114E1,1.359135211E-1,-1.033858955E-1,-1.462979168E-1
1.837850828E1,1.432436854E-1,-2.188360244E-1,-1.863084175E-2
1.838839541E1,1.542389393E-1,-2.958027720E-1,9.376505762E-2
1.839828255E1,1.768402755E-1,-3.312319219E-1,1.902789176E-1
1.840816968E1,2.257080674E-1,-3.067980409E-1,2.696890533E-1
1.841805682E1,2.800734639E-1,-2.976353168E-1,3.662029207E-1
1.842794395E1,3.112266660E-1,-3.501681983E-1,4.902049303E-1
1.843783109E1,3.087832928E-1,-3.972034156E-1,5.781669021E-1
1.844771822E1,2.702999115E-1,-4.143071473E-1,5.445703268E-1
1.845760541E1,1.884463727E-1,-4.314108789E-1,4.248442650E-1
1.846749255E1,1.023169160E-1,-4.588989913E-1,3.326063454E-1
1.847737968E1,7.666133344E-2,-4.595098495E-1,3.692571819E-1
1.848726682E1,1.438545287E-1,-4.320217371E-1,5.580089688E-1
1.849715395E1,2.476985604E-1,-3.660502136E-1,8.060129285E-1
1.850704109E1,3.100049794E-1,-2.396048307E-1,9.788827300E-1
1.851692822E1,3.203893900E-1,-1.901262105E-1,1.021642089E0
1.852681536E1,3.216110766E-1,-2.194468826E-1,9.251281619E-1
1.853670250E1,2.861819267E-1,-2.554868758E-1,7.143858671E-1
1.854658963E1,2.348707765E-1,-2.096733153E-1,4.840964675E-1
1.855647677E1,2.501419485E-1,-6.795676053E-2,3.411581814E-1
1.856636390E1,3.246653080E-1,1.177408099E-1,3.289412558E-1
1.857625109E1,4.017084241E-1,3.052709103E-1,4.272876680E-1
1.858613822E1,4.438568950E-1,4.512633979E-1,5.958815217E-1
1.859602536E1,4.395809472E-1,5.233433843E-1,7.626428008E-1
1.860591250E1,3.869717419E-1,5.447230339E-1,8.469397426E-1
1.861579963E1,2.935121059E-1,5.056288242E-1,8.389987350E-1
1.862568676E1,2.000524700E-1,4.359922409E-1,7.711946368E-1
1.863557390E1,1.401894391E-1,3.712424338E-1,6.917845011E-1
1.864546104E1,1.120904684E-1,3.193204105E-1,6.484143734E-1
1.865534817E1,9.559759498E-2,2.991624475E-1,6.429167390E-1
1.866523536E1,9.865183383E-2,3.003841341E-1,6.618530154E-1
1.867512250E1,1.322484314E-1,3.034383655E-1,6.948387623E-1
1.868500963E1,1.676775664E-1,2.906105816E-1,7.204943299E-1
1.869489677E1,1.963873953E-1,2.252499312E-1,7.247702479E-1
1.870478390E1,2.183778882E-1,1.097997949E-1,7.003363967E-1
1.871467104E1,2.104368806E-1,1.634016447E-2,6.294780970E-1
1.872455817E1,1.853921413E-1,-4.840964451E-2,5.402944088E-1
1.873444531E1,1.670667231E-1,-1.119377613E-1,4.767662883E-1
1.874433250E1,1.353026628E-1,-1.895153672E-1,4.663818777E-1
1.875421963E1,7.605048269E-2,-2.738122940E-1,5.048652887E-1
1.876410676E1,3.878879920E-2,-3.660502136E-1,5.714476109E-1
1.877399390E1,3.451287001E-2,-4.735593498E-1,6.416950226E-1
1.878388104E1,3.145863488E-2,-5.670189857E-1,6.911736727E-1
1.879376817E1,4.001049697E-2,-6.678087711E-1,7.204943299E-1
1.880365531E1,8.154810965E-2,-7.618792653E-1,7.357655168E-1
1.881354244E1,1.511846930E-1,-8.254073858E-1,7.430956960E-1
1.882342958E1,2.055501044E-1,-8.247964978E-1,7.357655168E-1
1.883331671E1,2.098260373E-1,-7.484406233E-1,7.094991207E-1
1.884320385E1,1.982199401E-1,-7.313368917E-1,6.942279339E-1
1.885309104E1,2.159345001E-1,-7.936432958E-1,7.052231431E-1
1.886297817E1,2.305948436E-1,-8.400676847E-1,7.296570539E-1
1.887286531E1,2.220429778E-1,-8.394568563E-1,7.547017932E-1
1.888275244E1,2.214321345E-1,-8.034168482E-1,7.620319724E-1
1.889263958E1,2.238755226E-1,-7.411104441E-1,7.430956960E-1
1.890252671E1,2.208212912E-1,-6.513158679E-1,7.058340311E-1
1.891241385E1,2.171562016E-1,-5.438067913E-1,6.612421870E-1
1.892230098E1,2.263189107E-1,-4.442386627E-1,6.252021790E-1
1.893218812E1,2.342599183E-1,-3.684936166E-1,6.019899845E-1
1.894207531E1,2.232646793E-1,-3.055763543E-1,5.861079693E-1
1.895196244E1,2.116585821E-1,-2.493783981E-1,5.683933496E-1
1.896184958E1,2.098260373E-1,-1.730224788E-1,5.470137000E-1
1.897173671E1,1.884463727E-1,-9.788827598E-2,5.152496696E-1
1.898162385E1,1.634016484E-1,-4.657710344E-2,4.688252807E-1
1.899151098E1,1.621799469E-1,-1.725643501E-2,4.242334068E-1
1.900139812E1,1.597365588E-1,-2.596100792E-3,3.930802047E-1
1.901128526E1,1.401894391E-1,7.788302377E-3,3.900259733E-1
1.902117239E1,9.865183383E-2,1.572931744E-2,4.162923992E-1
1.903105958E1,4.672981426E-2,4.138490185E-2,4.651601911E-1
1.904094671E1,1.740914769E-2,1.024696305E-1,5.250232220E-1
1.905083385E1,2.901524492E-2,1.592784226E-1,5.799994469E-1
1.906072098E1,5.405998230E-2,1.983726472E-1,6.148177385E-1
1.907060812E1,9.559759498E-2,2.258607745E-1,6.276455522E-1
1.908049526E1,1.915006191E-1,2.374668717E-1,6.313106418E-1
1.909038239E1,2.544178963E-1,2.447970361E-1,6.325323582E-1
1.910026953E1,2.476985604E-1,2.771719396E-1,6.252021790E-1
1.911015666E1,2.403683960E-1,3.071034551E-1,6.190937161E-1
1.912004380E1,2.354816198E-1,3.370349705E-1,6.142069101E-1
1.912993098E1,2.269297540E-1,3.956763148E-1,6.074876189E-1
1.913981812E1,2.220429778E-1,4.323271513E-1,6.111527085E-1
1.914970526E1,2.263189107E-1,4.414898455E-1,6.270347238E-1
1.915959239E1,2.318165302E-1,4.390464723E-1,6.508577466E-1
1.916947953E1,2.519744933E-1,4.329380095E-1,6.746807694E-1
1.917936666E1,2.776300907E-1,4.341596961E-1,6.820109487E-1
1.918925380E1,2.776300907E-1,4.335488379E-1,6.697940230E-1
1.919914093E1,2.513636351E-1,4.188885093E-1,6.410841942E-1
1.920902812E1,2.391466945E-1,3.816268146E-1,6.062659025E-1
1.921891526E1,2.428117841E-1,3.443651497E-1,5.867187977E-1
1.922880239E1,2.495311052E-1,3.370349705E-1,5.958815217E-1
1.923868953E1,2.617480457E-1,3.370349705E-1,6.252021790E-1
1.924857666E1,2.660239935E-1,3.468085229E-1,6.514685750E-1
1.925846380E1,2.513636351E-1,3.602471650E-1,6.649072170E-1
1.926835093E1,2.232646793E-1,3.687990308E-1,6.618530154E-1
1.927823807E1,2.018850148E-1,3.602471650E-1,6.484143734E-1
1.928812520E1,1.884463727E-1,3.180987239E-1,6.435275674E-1
1.929801239E1,1.701209545E-1,2.845021188E-1,6.569662094E-1
1.930789953E1,1.359135211E-1,2.698417902E-1,6.954495907E-1
1.931778666E1,1.090362370E-1,2.838912606E-1,7.498149872E-1
1.932767380E1,9.498675168E-2,3.028275371E-1,8.035695553E-1
1.933756093E1,7.971556485E-2,2.832804024E-1,8.353336453E-1
1.934744807E1,8.276980370E-2,2.252499312E-1,8.286142945E-1
1.935733520E1,7.910472155E-2,1.519482583E-1,7.834116220E-1
1.936722239E1,5.894676223E-2,9.819369763E-2,7.198835015E-1
1.937710953E1,3.817795217E-2,4.932591692E-2,6.447492838E-1
1.938699666E1,1.007897966E-2,-3.206948051E-3,5.543438792E-1
1.939688380E1,1.252236869E-2,-8.628217876E-2,4.553866386E-1
1.940677093E1,3.817795217E-2,-2.316638231E-1,3.741439581E-1
1.941665807E1,2.535016090E-2,-4.210264683E-1,3.411581814E-1
1.942654520E1,-2.290677279E-2,-5.859552622E-1,3.820849657E-1
1.943643234E1,-6.139015034E-2,-6.769714952E-1,5.036435723E-1
1.944631953E1,-5.955760926E-2,-6.824691296E-1,6.795675755E-1
1.945620666E1,-5.894676223E-2,-6.390989423E-1,8.506048322E-1
1.946609380E1,-7.177454978E-2,-5.883986354E-1,9.446752667E-1
1.947598093E1,-5.405998230E-2,-5.187620521E-1,9.318475127E-1
1.948586807E1,-1.863084175E-2,-4.234698713E-1,8.451071978E-1
1.949575520E1,7.024743594E-3,-3.104631305E-1,7.485933304E-1
