"Time (s)","Linear Acceleration x (m/s^2)","Linear Acceleration y (m/s^2)","Linear Acceleration z (m/s^2)"
7.744439200E-2,0.000000000E0,0.000000000E0,0.000000000E0
8.733147500E-2,-4.723501205E-2,1.068401337E-1,-7.204365730E-2
9.721855900E-2,-1.307423115E-1,5.584716797E-2,2.003850937E-1
1.071056940E-1,-1.583735943E-1,-9.031963348E-2,3.321278095E-2
1.169927770E-1,-1.539342403E-1,-1.361808777E-1,-1.149971485E-1
1.268798610E-1,-1.285643578E-1,-1.455039978E-1,-8.927345276E-3
1.367669440E-1,2.815461159E-2,-2.088518143E-1,-1.377546787E-2
1.466540270E-1,2.679913044E-1,-2.441806793E-1,-6.623506546E-2
1.565411630E-1,5.328989029E-1,-1.211357117E-1,-1.900819540E-1
1.664282460E-1,3.797681332E-1,2.392482758E-2,-2.961238027E-1
1.763153290E-1,4.005169868E-2,5.811595917E-2,-8.660352230E-2
1.862024130E-1,-2.789270878E-1,-3.659152985E-2,8.713293076E-2
1.960894960E-1,-1.669013500E-1,-3.096294403E-2,1.020338535E-1
2.059766320E-1,3.131008148E-2,5.423069000E-2,-2.354633808E-2
2.158637150E-1,1.249172688E-1,8.498096466E-2,-5.893373489E-2
2.257507980E-1,2.619147301E-2,-8.069992065E-2,-1.045682430E-1
2.356378820E-1,5.286622047E-2,-1.962404251E-1,-7.688236237E-2
2.455249650E-1,1.162066460E-1,-1.300611496E-1,-8.116114140E-2
2.554120480E-1,1.079242229E-1,-3.277873993E-2,2.510130405E-2
2.652991840E-1,2.825546265E-2,6.944656372E-2,1.759016514E-1
2.751862670E-1,-3.171672821E-1,1.004800797E-1,2.300410271E-1
2.850733500E-1,-5.553710461E-1,3.240394592E-2,3.035936356E-1
2.949604340E-1,-2.996578217E-1,1.347446442E-1,3.082042933E-1
3.048475170E-1,-4.129385948E-2,2.696161270E-1,2.020285130E-1
3.147346000E-1,2.845304012E-1,2.331886292E-1,9.882140160E-2
3.246217360E-1,6.592471600E-1,3.162193298E-2,-8.567619324E-2
3.345088190E-1,8.532292843E-1,-1.910133362E-1,-2.988114357E-1
3.443959020E-1,1.025506020E0,-1.272840500E-1,-3.685969114E-1
3.542830380E-1,9.279594421E-1,1.422052383E-1,-3.415117264E-1
3.641701210E-1,3.953888416E-1,2.400445938E-1,-4.772700071E-1
3.740572040E-1,7.925939560E-2,1.072959900E-1,-2.236006856E-1
3.839442880E-1,1.752400398E-1,4.940986633E-3,-4.254031181E-2
3.938313710E-1,2.510545254E-1,-8.753013611E-2,9.211879969E-2
4.037185070E-1,1.969213486E-1,-1.359968185E-1,1.745324135E-1
4.136055900E-1,-1.629829407E-2,-3.241920471E-2,1.944515705E-1
4.234926730E-1,-3.463060856E-1,-2.112464905E-1,4.141744375E-1
4.333797570E-1,-3.893105984E-1,-2.714090347E-1,4.748154879E-1
4.432668400E-1,-2.562742233E-1,-1.044788361E-1,2.597759366E-1
4.531539750E-1,-2.875669003E-1,-3.126621246E-2,4.144428372E-1
4.630410590E-1,-2.384381294E-1,-1.081399918E-1,4.907200933E-1
4.729281420E-1,-2.213022709E-1,-1.390895844E-1,1.699726582E-1
4.828152250E-1,-6.215631962E-1,-1.395492554E-1,2.240310311E-1
4.927023610E-1,-1.153022647E0,-3.179836273E-2,6.617462635E-2
5.025894440E-1,-1.136326432E0,1.815652847E-1,3.210269809E-1
5.124765270E-1,-8.834985495E-1,2.164335251E-1,-1.083941460E-1
5.223636110E-1,-5.926674604E-1,5.170631409E-2,1.022696495E-3
5.322507460E-1,-3.651392460E-1,-8.716297150E-2,-2.083014846E-1
5.421378290E-1,-3.210983276E-1,-1.137580872E-1,-4.061351717E-1
5.520249130E-1,-3.754932880E-1,-9.275436401E-2,-4.369542301E-1
5.619119960E-1,-4.169175625E-1,1.091842651E-1,-4.599300921E-1
5.717990790E-1,-2.568869591E-1,3.806905746E-1,-2.784081101E-1
5.816862150E-1,-9.740853310E-2,3.851203918E-1,-1.375175118E-1
5.915732980E-1,1.306080818E-2,2.427721024E-1,-2.681935430E-1
6.014603820E-1,-1.076388359E-1,1.562900543E-1,-2.649136782E-1
6.113475170E-1,-5.575757027E-1,4.949569702E-2,2.291941643E-2
6.212346000E-1,-9.116353989E-1,4.204654694E-2,1.352593303E-1
6.311216840E-1,-9.465881586E-1,2.347812653E-1,1.335969567E-1
6.410087670E-1,-8.823840618E-1,3.905267715E-1,1.052460670E-1
6.508959020E-1,-9.967178106E-1,4.200420380E-1,2.747430801E-1
6.607829860E-1,-1.281862855E0,3.635559082E-1,5.187976956E-1
6.706700690E-1,-1.551601171E0,4.758043289E-1,7.942166924E-1
6.805571520E-1,-1.742534161E0,5.740385056E-1,9.504147768E-1
6.904442880E-1,-1.727783442E0,4.891433716E-1,8.613938093E-1
7.003313710E-1,-1.442324996E0,3.882150650E-1,7.247784138E-1
7.102184540E-1,-1.063329577E0,5.225009918E-1,3.373469114E-1
7.201055380E-1,-9.090898037E-1,8.187446594E-1,-4.245698452E-2
7.299926730E-1,-7.285265923E-1,1.088460922E0,-2.009773850E-1
7.398797570E-1,-1.655590534E0,1.547933578E0,-4.202298522E-1
7.497668400E-1,-2.496646166E0,1.937438965E0,-1.183601618E-1
7.596539230E-1,-3.508278608E0,1.799268723E0,2.742578983E-1
7.695410590E-1,-3.560446501E0,1.465870857E0,1.037942290E0
7.794281420E-1,-3.051733255E0,9.957838058E-1,1.587910652E0
7.893152250E-1,-2.017639637E0,5.909824371E-1,1.464177132E0
7.992023610E-1,-1.011942148E0,2.572393417E-1,1.656417489E0
8.090894440E-1,-3.541202545E-1,1.352367401E-1,1.809044242E0
8.189765270E-1,-7.316112518E-3,1.536684036E-1,1.960187793E0
8.288636110E-1,2.067775726E-1,3.458719254E-1,1.983577132E0
8.387507460E-1,1.483225822E-2,6.223173141E-1,2.083073139E0
8.486378290E-1,-2.574098110E-1,9.654731750E-1,1.708325744E0
8.585249130E-1,-4.005203247E-1,1.236670494E0,1.257315993E0
8.684120480E-1,-3.928000927E-1,1.561087608E0,7.338798046E-1
8.782991320E-1,-4.582190514E-1,1.802958488E0,3.180184364E-1
8.881862150E-1,-4.657409191E-1,1.726917267E0,-4.373431206E-3
8.980733500E-1,-2.678377628E-1,1.246954918E0,-3.939834833E-1
9.079604340E-1,2.611396313E-1,5.286941528E-1,-8.166725039E-1
9.178475170E-1,6.506056786E-1,-1.407070160E-1,-1.062879443E0
9.277346000E-1,8.528823853E-1,-3.751592636E-1,-1.187933087E0
9.376217360E-1,5.616958141E-1,-3.935451508E-1,-1.625165701E0
9.475088190E-1,1.968538761E-1,-2.758035660E-1,-1.353233576E0
9.573959020E-1,-1.305108070E-1,-1.560668945E-1,-8.221434355E-1
9.672830380E-1,-2.838995457E-1,-2.290410995E-1,-8.801409006E-1
9.771701210E-1,-1.168518066E-1,-4.958925247E-1,-7.767961025E-1
9.870572040E-1,1.734328270E-2,-7.792453766E-1,-4.106075168E-1
9.969443400E-1,1.307084560E-1,-1.223147392E0,-6.244273186E-1
1.006831423E0,8.116850853E-1,-1.613123894E0,-1.361316204E0
1.016718507E0,1.561034679E0,-1.627584457E0,-1.202091098E0
1.026605642E0,1.930399418E0,-1.542104721E0,-1.305372953E0
1.036492725E0,2.335152388E0,-1.461886406E0,-1.453920126E0
1.046379809E0,2.504086256E0,-1.237808228E0,-1.112465858E0
1.056266944E0,1.974163532E0,-1.219313622E0,-6.090971231E-1
1.066154027E0,1.168978572E0,-1.337250710E0,-2.135937810E-1
1.076041111E0,5.243136883E-1,-1.585061073E0,8.187973499E-2
1.085928246E0,1.446582079E-1,-1.710189819E0,1.575974226E-1
1.095815329E0,1.602753401E-1,-1.484176636E0,-1.173877716E-1
1.105702413E0,3.985522985E-1,-1.162171364E0,-3.337954283E-1
1.115589548E0,6.511096954E-1,-8.901910782E-1,-2.783113718E-1
1.125476632E0,7.019754648E-1,-7.154607773E-1,1.552246809E-1
1.135363715E0,4.639700651E-1,-5.893402100E-1,4.225090742E-1
1.145250850E0,5.526739359E-2,-5.108108521E-1,2.494429350E-1
1.155137934E0,6.487131119E-2,-3.056068420E-1,4.913443327E-1
1.165025017E0,7.258474827E-3,-2.556352615E-1,4.863737822E-1
1.174912152E0,-2.460503578E-2,-5.238924026E-1,8.708953857E-2
1.184799236E0,1.271248162E-1,-9.434661865E-1,-2.809238434E-2
1.194686319E0,4.995511472E-1,-1.418630600E0,-1.718330383E-1
1.204573454E0,9.084880352E-1,-1.660257816E0,-3.467305899E-1
1.214460538E0,1.421185136E0,-1.540453911E0,1.693198681E-1
1.224347621E0,1.748982787E0,-1.291168213E0,2.803752422E-1
1.234234757E0,1.428856373E0,-1.246910095E0,3.052682877E-1
1.244121840E0,3.097456098E-1,-1.383444309E0,4.505882263E-1
1.254008923E0,-1.364084244E0,-1.276694298E0,8.359136581E-1
1.263896059E0,-2.172480822E0,-1.023787498E0,1.657412529E0
1.273783142E0,-1.549529910E0,-8.708009720E-1,1.159639359E0
1.283670277E0,1.446228027E-1,-6.176481247E-1,4.543304443E-1
1.293557361E0,1.768954396E0,-3.177080154E-1,-4.708051682E-3
1.303444444E0,2.741942167E0,-5.345916748E-2,-5.990166664E-1
1.313331579E0,3.449610472E0,2.519083023E-1,-4.831149578E-1
1.323218663E0,3.533370972E0,3.807954788E-1,-8.595567942E-1
1.333105746E0,2.689411402E0,3.194627762E-1,-8.650218248E-1
1.342992882E0,1.524698853E0,-7.816410065E-2,-4.383594990E-1
1.352879965E0,5.185731649E-1,-5.855455399E-1,-4.158291817E-1
1.362767100E0,1.256291866E-1,-8.247108459E-1,-3.445727825E-1
1.372654184E0,1.890910864E-1,-8.164434433E-1,-5.098896027E-1
1.382541267E0,3.727623224E-1,-6.435489655E-1,-7.491974831E-1
1.392428350E0,3.493425846E-1,-3.303537369E-1,-4.543004036E-1
1.402315486E0,2.533494234E-1,-1.259517670E-1,-2.983748913E-1
1.412202569E0,2.886388302E-1,-1.548728943E-1,-5.226156712E-1
1.422089652E0,7.009891272E-1,-4.186220169E-1,-8.059525490E-1
1.431976788E0,1.307829142E0,-7.472839355E-1,-1.114834309E0
1.441863871E0,1.855255961E0,-1.050935745E0,-1.755822062E0
1.451751007E0,2.339316368E0,-1.071326733E0,-2.143719196E0
1.461638090E0,2.047999382E0,-7.264757156E-1,-9.840707779E-1
1.471525225E0,1.488689184E-1,1.815910339E-1,1.234110594E0
1.481412309E0,-2.954383373E0,1.905856133E0,3.673450232E0
1.491299392E0,-5.588594913E0,3.462544441E0,6.154137611E0
1.501186527E0,-6.285117149E0,4.164426804E0,6.591166496E0
1.511073611E0,-5.519877911E0,3.020144463E0,5.339154243E0
1.520960694E0,-3.961030006E0,1.285210609E0,4.159591198E0
1.530847829E0,-9.325603247E-1,5.507669449E-1,2.003855228E0
1.540734913E0,2.130761385E0,9.160051346E-1,1.636584997E0
1.550622048E0,3.516685724E0,1.359088898E0,-7.626368999E-1
1.560509132E0,3.748777628E0,1.551713943E0,-2.095089436E0
1.570396215E0,3.744292498E0,1.787909508E0,-2.564493656E0
1.580283350E0,3.146232843E0,1.889879227E0,-2.226435423E0
1.590170434E0,2.034770727E0,1.571546555E0,-9.160270691E-1
1.600057569E0,1.047145128E0,7.634487152E-1,3.278675079E-1
1.609944652E0,5.385541916E-1,1.395568848E-1,-3.899812698E-3
1.619831736E0,6.691763401E-1,8.598804474E-2,-8.508890867E-1
1.629718871E0,9.135774374E-1,2.058134079E-1,-1.483689308E0
1.639605954E0,9.258254766E-1,3.364124298E-1,-1.899471998E0
1.649493090E0,8.302143216E-1,3.341102600E-1,-1.324302912E0
1.659380173E0,2.738272846E-1,1.017055511E-1,-7.207695246E-1
1.669267257E0,-5.199618340E-1,-2.423315048E-1,-3.817403316E-1
1.679154392E0,-1.094616532E0,-6.301832199E-1,-2.610335350E-1
1.689041475E0,-1.243257642E0,-8.407030106E-1,-1.611456871E-1
1.698928611E0,-1.041878462E0,-7.286243439E-1,-2.102384567E-1
1.708815694E0,-7.374188304E-1,-4.563121796E-1,-2.721574306E-1
1.718702777E0,-8.342310190E-1,-1.414823532E-1,-6.016612053E-2
1.728589913E0,-1.303117633E0,-9.275627136E-2,1.490362883E-1
1.738476996E0,-1.781807065E0,-2.144536972E-1,1.290403605E-1
1.748364132E0,-1.903852582E0,-2.486419678E-1,2.557568550E-1
1.758251215E0,-1.684869170E0,-1.253700256E-1,1.470361948E-1
1.768138298E0,-1.111459613E0,2.256269455E-1,-2.583408356E-1
1.778025434E0,-6.726154089E-1,5.414428711E-1,-5.615992546E-1
1.787912517E0,-6.423978806E-1,5.344953537E-1,-3.600027561E-1
1.797799600E0,-7.396351099E-1,1.780490875E-1,-2.092103958E-1
1.807686736E0,-6.537666917E-1,-1.614818573E-1,-1.791797876E-1
1.817573819E0,-4.833905101E-1,-1.981744766E-1,-4.027209282E-1
1.827460954E0,-1.452108026E-1,-1.575098038E-1,-3.564658165E-1
1.837348038E0,1.119784117E-1,-6.111526489E-2,-7.083560228E-1
1.847235173E0,1.815305948E-1,-9.518623352E-3,-8.586525917E-1
1.857122257E0,4.438483715E-2,4.241943359E-3,-5.400308967E-1
1.867009340E0,-1.628435850E-1,-4.104328156E-2,-3.358904123E-1
1.876896475E0,-4.036839008E-1,-1.779651642E-1,-9.166944027E-2
1.886783559E0,-4.661608934E-1,-3.292293549E-1,-1.707267761E-1
1.896670694E0,-2.561218739E-1,-5.206422806E-1,-3.800814152E-1
1.906557777E0,8.186912537E-2,-6.594686508E-1,-4.377332926E-1
1.916444913E0,5.561338663E-1,-7.707128525E-1,-5.482267737E-1
1.926331996E0,9.501690865E-1,-7.289609909E-1,-7.786482573E-1
1.936219079E0,1.138618708E0,-6.138305664E-1,-8.165186048E-1
1.946106215E0,1.106794357E0,-6.116151810E-1,-6.620033979E-1
1.955993298E0,8.793308735E-1,-5.761690140E-1,-5.658010840E-1
1.965880434E0,5.564510822E-1,-5.664110184E-1,-4.992169738E-1
1.975767517E0,2.215240002E-1,-6.169290543E-1,-6.837084293E-1
1.985654600E0,-7.954931259E-2,-5.956497192E-1,-8.201687336E-1
1.995541736E0,-2.658483982E-1,-3.955841064E-1,-7.429394126E-1
2.005428819E0,-2.551486492E-1,-2.300710678E-1,-5.661972165E-1
2.015315954E0,-1.908872128E-1,-2.401981354E-1,-2.874914706E-1
2.025203038E0,-7.504844666E-2,-2.828502655E-1,-4.837813973E-2
2.035090173E0,1.328539848E-1,-3.109970093E-1,-2.498090267E-2
2.044977257E0,4.050774574E-1,-2.563037872E-1,1.953134239E-1
2.054864392E0,5.304524899E-1,-1.428508759E-1,-4.175305367E-3
2.064751475E0,6.551377773E-1,-1.256942749E-3,3.370571136E-2
2.074638559E0,8.237071037E-1,4.786777496E-2,2.162151337E-1
2.084525694E0,7.517163754E-1,-9.398651123E-2,2.475101650E-1
2.094412777E0,6.180775166E-1,-3.349676132E-1,4.011403024E-1
2.104299913E0,3.587172031E-1,-4.480447769E-1,5.788059831E-1
2.114186996E0,-4.066228867E-2,-4.381427765E-1,4.476402998E-1
2.124074132E0,-4.578092098E-1,-3.319749832E-1,4.248279929E-1
2.133961215E0,-5.795476437E-1,-1.360483170E-1,2.768629789E-1
2.143848350E0,-4.643652439E-1,6.859207153E-2,3.858399391E-1
2.153735434E0,-3.364291191E-1,2.326602936E-1,3.621490896E-1
2.163622517E0,-1.971685886E-1,5.486001968E-1,4.181049466E-1
2.173509652E0,-1.114628315E-1,9.704923630E-1,3.083018064E-1
2.183396736E0,-1.929202080E-1,9.028005600E-1,1.932911426E-1
2.193283871E0,-3.000547886E-1,5.488729477E-1,1.679388285E-1
2.203170954E0,-3.054704666E-1,2.872257233E-1,-1.904867589E-1
2.213058090E0,-1.666760445E-1,2.032327652E-1,-8.862431645E-1
2.222945173E0,1.664047241E-1,1.860389709E-1,-1.267508268E0
2.232832309E0,4.903464317E-1,2.089948654E-1,-1.442807913E0
2.242719392E0,5.184350014E-1,2.961082458E-1,-1.334301114E0
2.252606475E0,1.811122894E-1,4.290323257E-1,-8.557404876E-1
2.262493611E0,-4.965767860E-1,4.280176163E-1,-2.417139262E-1
2.272380694E0,-9.680778980E-1,4.633808136E-1,1.704690456E-1
2.282267829E0,-8.039021492E-1,7.045326233E-1,-2.823171914E-1
2.292154913E0,-2.087593079E-2,1.062892914E0,-1.393382907E0
2.302042048E0,9.741816521E-1,1.446200371E0,-2.275342464E0
2.311929132E0,1.598772049E0,1.665847778E0,-2.524959326E0
2.321816267E0,1.369912624E0,1.411048889E0,-2.294565678E0
2.331703350E0,8.669743538E-1,8.684492111E-1,-1.856980920E0
2.341590486E0,7.700872421E-1,4.293661118E-1,-1.668964386E0
2.351477569E0,9.114346504E-1,3.397846222E-1,-1.373916388E0
2.361364652E0,8.780035973E-1,3.707399368E-1,-8.203537464E-1
2.371251788E0,5.703067780E-1,5.711717606E-1,3.189799190E-1
2.381138871E0,4.664230347E-2,7.703208923E-1,1.521651030E0
2.391026007E0,-5.463547707E-1,8.750181198E-1,2.363241911E0
2.400913090E0,-6.837754250E-1,1.194950104E0,3.266082764E0
2.410800225E0,-4.602155685E-1,1.724569321E0,3.187706232E0
2.420687309E0,1.358184814E-1,2.295379639E0,2.804605484E0
2.430574444E0,7.456765175E-1,2.712442398E0,2.229886055E0
2.440461527E0,9.007334709E-1,2.664443970E0,1.947833419E0
2.450348663E0,7.076425552E-1,2.276569366E0,1.132747889E0
2.460235746E0,9.302339554E-1,2.077832222E0,5.766534805E-1
2.470122882E0,7.968583107E-1,1.792634010E0,-4.066347480E-1
2.480009965E0,4.743280411E-1,1.505808830E0,-9.283121228E-1
2.489897048E0,1.172089577E-1,1.046410561E0,-1.237997770E0
2.499784184E0,-2.430291176E-1,6.747980118E-1,-2.002014160E0
2.509671267E0,-5.472745895E-1,6.080245972E-1,-2.377398968E0
2.519558402E0,-1.318838596E0,3.488407135E-1,-1.830335736E0
2.529445486E0,-1.779747486E0,6.571197510E-2,-1.598916888E0
2.539332621E0,-1.810655594E0,-1.660165787E-1,-1.068325400E0
2.549219704E0,-1.510426998E0,-4.391498566E-1,-6.578849554E-1
2.559106840E0,-9.920697212E-1,-6.407070160E-1,-7.080523372E-1
2.568993923E0,-5.144991875E-1,-7.894330025E-1,-2.730130255E-1
2.578881059E0,-2.367033958E-1,-9.841070175E-1,3.841116130E-1
2.588768142E0,1.726818085E-2,-9.824881554E-1,6.380444765E-1
2.598655277E0,4.035000801E-1,-9.368343353E-1,7.331032753E-1
2.608542361E0,7.669005394E-1,-9.746475220E-1,7.538133264E-1
2.618429496E0,9.907321930E-1,-1.238397121E0,8.814462423E-1
2.628316579E0,1.054646015E0,-1.610843658E0,7.132122517E-1
2.638203663E0,1.230640888E0,-1.775869370E0,4.190343618E-1
2.648090798E0,1.583667755E0,-1.493031502E0,2.398613840E-1
2.657977934E0,2.034538269E0,-1.016530037E0,3.500338197E-1
2.667865017E0,1.971566677E0,-7.355537415E-1,8.748093992E-2
2.677752100E0,1.472640514E0,-6.681394577E-1,-1.842336953E-1
2.687639236E0,1.027939320E0,-6.449918747E-1,-2.590344846E-1
2.697526319E0,7.158808708E-1,-5.703258514E-1,-4.619715512E-1
2.707413454E0,-8.977961540E-2,-5.088386536E-1,-4.165867567E-1
2.717300538E0,-9.809010029E-1,-4.278125763E-1,-8.911564946E-2
2.727187673E0,-1.038790703E0,-4.051980972E-1,1.349612474E-1
2.737074757E0,-4.660921097E-1,-3.989744186E-1,-2.071557939E-1
2.746961892E0,2.355093956E-1,-4.721479416E-1,-4.884476066E-1
2.756848975E0,7.948806286E-1,-7.824583054E-1,-6.161727905E-1
2.766736111E0,1.239201784E0,-1.031193733E0,-8.653355241E-1
2.776623194E0,1.715065241E0,-1.190082550E0,-9.758248329E-1
2.786510329E0,2.103564739E0,-1.399225235E0,-1.028253555E0
2.796397413E0,2.111925602E0,-1.539191246E0,-9.354268312E-1
2.806284548E0,1.361471057E0,-1.318278313E0,-1.002662182E0
2.816171632E0,1.366730332E-1,-9.464178085E-1,-6.586846709E-1
2.826058767E0,-6.576293111E-1,-6.975088120E-1,-1.239728928E-2
2.835945850E0,-1.035182953E0,-6.334142685E-1,3.728097677E-1
2.845832986E0,-8.167757392E-1,-7.679233551E-1,4.834120274E-1
2.855720069E0,-1.125410199E-2,-9.820480347E-1,2.092570066E-1
2.865607204E0,1.175471783E0,-1.146003723E0,-4.727241993E-1
2.875494288E0,2.119894981E0,-1.199650764E0,-6.760942936E-1
2.885381423E0,2.539759636E0,-1.012181282E0,-4.314359426E-1
2.895268507E0,2.323858023E0,-8.545675278E-1,-1.171840429E-1
2.905155642E0,1.830914974E0,-7.183685303E-1,1.829848289E-1
2.915042725E0,1.195339203E0,-7.604417801E-1,4.067506790E-1
2.924929861E0,5.030555725E-1,-9.613265991E-1,7.190654278E-1
2.934816944E0,-1.543891430E-2,-1.239096642E0,7.064127922E-1
2.944704079E0,-2.785148621E-1,-1.416170597E0,8.000915051E-1
2.954591163E0,-9.653329849E-2,-1.526614189E0,5.043184757E-1
2.964478298E0,5.080071688E-1,-1.509715080E0,-4.547142982E-2
2.974365382E0,1.172419190E0,-1.261572838E0,-3.296487331E-1
2.984252517E0,1.453440189E0,-8.964262009E-1,-2.253546715E-1
2.994139600E0,1.400111437E0,-4.807853699E-1,3.462789059E-1
3.004026736E0,1.147918820E0,-1.974859238E-1,3.184814453E-1
3.013913819E0,7.508510351E-1,-1.989231110E-1,4.226603508E-1
3.023800954E0,2.520453930E-1,-4.995718002E-1,5.932893753E-1
3.033688038E0,-1.297469139E-1,-7.485313416E-1,5.382997990E-1
3.043575173E0,-2.833032608E-1,-8.700828552E-1,1.846706867E-1
3.053462257E0,-5.093979836E-2,-7.168035507E-1,-2.251359224E-1
3.063349392E0,4.673554897E-1,-4.228658676E-1,-5.168975592E-1
3.073236475E0,1.044583797E0,-5.996322632E-2,-8.680437803E-1
3.083123611E0,1.272572517E0,3.104724884E-1,-1.620192528E-1
3.093010694E0,8.477957249E-1,8.523960114E-1,1.016778708E0
3.102897829E0,1.728510857E-2,1.334756851E0,1.817746162E0
3.112784913E0,-3.169124126E-1,1.466199875E0,1.842765570E0
3.122672048E0,8.924221992E-2,1.305878639E0,1.980134726E0
3.132559132E0,6.694574356E-1,1.360046387E0,1.761030912E0
3.142446267E0,9.216791391E-1,1.444266319E0,1.762654781E0
3.152333350E0,3.164042234E-1,1.302885056E0,2.017837048E0
3.162220486E0,-8.769748211E-1,1.466075897E0,2.569229841E0
3.172107569E0,-1.292731881E0,2.258787155E0,2.552029133E0
3.181994704E0,-3.638467789E-1,2.698418617E0,1.178875923E0
3.191881788E0,1.047601581E0,2.557529449E0,2.252905369E-1
3.201768923E0,1.899211645E0,1.926709175E0,-8.116145134E-1
3.211656007E0,1.930023909E0,1.190877914E0,-1.332714438E0
3.221543142E0,1.451864600E0,6.652336121E-1,-1.458761096E0
3.231430225E0,9.279835820E-1,5.981130600E-1,-1.271276474E0
3.241317361E0,3.188308477E-1,7.452049255E-1,-1.059592009E0
3.251204444E0,-2.694892883E-1,7.417058945E-1,-1.025607467E0
3.261091579E0,-7.031322718E-1,5.847282410E-1,-8.476659656E-1
3.270978663E0,-1.015311718E0,3.744659424E-1,-6.100786924E-1
3.280865798E0,-1.232863069E0,-4.403781891E-2,-5.127384663E-1
3.290752934E0,-1.464577079E0,-4.837713242E-1,-3.511031866E-1
3.300640017E0,-1.681745291E0,-9.133615494E-1,-2.141213417E-1
3.310527100E0,-1.814137220E0,-1.184413910E0,-4.496037960E-2
3.320414236E0,-1.879551530E0,-1.177645683E0,1.155483723E-1
3.330301319E0,-2.095144272E0,-1.132753372E0,5.228645802E-1
3.340188454E0,-2.360823154E0,-1.188654900E0,8.190621138E-1
3.350075538E0,-2.192792416E0,-1.005843163E0,9.563103914E-1
3.359962673E0,-1.251857519E0,-5.362863541E-1,7.522444725E-1
3.369849809E0,-2.036277056E-1,-1.546325684E-1,2.708489895E-1
3.379736892E0,4.863378704E-1,-9.198474884E-2,-2.992639542E-1
3.389624027E0,7.417316437E-1,-2.208919525E-1,-8.852311969E-1
3.399511111E0,6.334354281E-1,-4.216375351E-1,-1.049401999E0
3.409398246E0,3.385836780E-1,-5.799531937E-1,-9.792345762E-1
3.419285329E0,5.560984462E-2,-5.221433640E-1,-7.960041165E-1
3.429172465E0,1.261721924E-2,-2.800559998E-1,-5.759528279E-1
3.439059548E0,1.636964828E-1,-9.307479858E-2,-5.508102179E-1
3.448946684E0,6.063076854E-1,2.269849777E-1,-2.005749941E-1
3.458833767E0,8.010655046E-1,4.911136627E-1,-1.908035278E-1
3.468720902E0,7.086549997E-1,5.089836121E-1,-2.791649699E-1
3.478607986E0,5.457228422E-1,2.720441818E-1,1.649912596E-1
3.488495121E0,2.036297023E-1,-1.614913940E-1,2.967532873E-1
3.498382204E0,8.392018080E-2,-3.637819290E-1,3.201533556E-1
3.508269340E0,1.840093136E-1,-1.779651642E-1,1.625208855E-1
3.518156423E0,3.935949206E-1,1.176624298E-1,-2.750265598E-2
3.528043559E0,5.620793104E-1,2.002182007E-1,-1.957296729E-1
3.537930642E0,6.686245799E-1,2.493705750E-1,-3.035411239E-1
3.547817777E0,5.845786333E-1,1.891155243E-1,-5.409767628E-1
3.557704861E0,6.289134026E-1,1.058559418E-1,-8.364127874E-1
3.567591996E0,6.789283752E-1,6.399059296E-2,-9.928458929E-1
3.577479132E0,5.916751623E-1,-3.719234467E-2,-9.417062998E-1
3.587366215E0,4.980926514E-1,-1.379671097E-1,-9.280912876E-1
3.597253350E0,3.297475576E-1,-1.403951645E-1,-9.247356057E-1
3.607140434E0,2.455265522E-1,-1.115226746E-1,-8.807563782E-1
3.617027569E0,1.794760227E-1,-3.689956665E-2,-9.544130564E-1
3.626914652E0,2.130912542E-1,-4.093647003E-2,-7.669422030E-1
3.636801788E0,3.891493082E-1,-5.449962616E-2,-6.583418846E-1
3.646688871E0,5.420849323E-1,1.061820984E-2,-7.305265665E-1
3.656576007E0,5.764173269E-1,8.476448059E-2,-4.774191678E-1
3.666463090E0,5.194005966E-1,1.759719849E-2,-3.159724176E-1
3.676350225E0,4.693275690E-1,-1.255273819E-1,-4.319767952E-1
3.686237309E0,4.388899803E-1,-2.389612198E-1,-4.394094050E-1
3.696124444E0,2.662582397E-1,-2.986660004E-1,-1.750290394E-1
3.706011527E0,2.451014519E-2,-2.783975601E-1,1.162129641E-2
3.715898663E0,-2.168861628E-1,-2.331800461E-1,1.777430773E-1
3.725785798E0,-3.583335876E-1,-2.300462723E-1,1.998636127E-1
3.735672882E0,-3.313822746E-1,-1.999273300E-1,3.288461566E-1
3.745560017E0,-3.178040981E-1,-2.718057632E-1,3.228188157E-1
3.755447100E0,-3.519076109E-1,-3.067369461E-1,2.303954959E-1
3.765334236E0,-4.106309414E-1,-2.640600204E-1,2.656675577E-1
3.775221319E0,-4.590771198E-1,-2.654294968E-1,3.776661158E-1
3.785108454E0,-5.336599350E-1,-3.127479553E-1,4.516904950E-1
3.794995538E0,-5.360316038E-1,-3.461494446E-1,3.678942919E-1
3.804882673E0,-5.941603184E-1,-2.202939987E-1,2.932977080E-1
3.814769757E0,-6.250709295E-1,-6.968402863E-2,3.382236958E-1
3.824656892E0,-8.895593882E-1,-9.472465515E-2,3.747313321E-1
3.834544027E0,-1.247254610E0,-1.656227112E-1,3.833714724E-1
3.844431111E0,-1.258782268E0,-8.223533630E-3,5.796251893E-1
3.854318246E0,-1.033305645E0,2.539205551E-1,2.970827222E-1
3.864205329E0,-8.844515085E-1,3.594379425E-1,1.042467654E-1
3.874092465E0,-9.673844576E-1,3.301410675E-1,-7.325103879E-2
3.883979548E0,-1.163370728E0,2.025928497E-1,-1.900301576E-1
3.893866684E0,-1.400483131E0,-5.086803436E-2,-3.305014670E-1
3.903753767E0,-1.603681564E0,-2.217006683E-1,-2.417981625E-2
3.913640902E0,-1.548510551E0,-1.787519455E-1,-2.427827120E-1
3.923527986E0,-1.214487076E0,-9.369182587E-2,-4.025351107E-1
3.933415121E0,-7.447946072E-1,-5.041313171E-2,-5.651700497E-1
3.943302257E0,-4.090418816E-1,-6.088447571E-2,-8.219842911E-1
3.953189340E0,-2.855165005E-1,-6.879806519E-3,-8.385906219E-1
3.963076475E0,-3.436913490E-1,1.142253876E-1,-5.727948546E-1
3.972963559E0,-6.157424450E-1,6.418418884E-2,-6.503129005E-1
3.982850694E0,-1.000204563E0,-7.684516907E-2,-5.171627402E-1
3.992737777E0,-1.277931690E0,-1.338558197E-1,-2.912096381E-1
4.002624913E0,-1.324630260E0,-6.660461426E-2,-1.352993846E-1
4.012512048E0,-1.163563967E0,7.889080048E-2,-5.237165689E-1
4.022399132E0,-6.053509712E-1,3.846435547E-1,-1.176837206E0
4.032286267E0,1.558322906E-1,6.901750565E-1,-2.017242908E0
4.042173350E0,8.938994408E-1,7.281398773E-1,-2.246739388E0
4.052060486E0,1.307599068E0,5.683145523E-1,-2.282896757E0
4.061947569E0,1.305262566E0,2.871417999E-1,-1.954217434E0
4.071834704E0,1.182170868E0,-1.393671036E-1,-1.506941438E0
4.081721788E0,1.186093807E0,-3.677034378E-1,-1.029610515E0
4.091608923E0,1.189082623E0,-4.251251221E-1,-9.845076799E-1
4.101496059E0,1.224503994E0,-4.276647568E-1,-1.099602580E0
4.111383142E0,1.157341003E0,-2.168693542E-1,-6.140333414E-1
4.121270277E0,1.149125576E0,1.468095779E-1,8.398711681E-3
4.131157361E0,1.349860191E0,5.963659286E-1,4.171648622E-1
4.141044496E0,1.906939030E0,1.194542885E0,9.724930525E-1
4.150931579E0,2.452455997E0,1.768073082E0,1.461199045E0
4.160818715E0,2.359220505E0,1.833872795E0,1.569754720E0
4.170705850E0,1.894278049E0,1.489706039E0,2.057504892E0
4.180592934E0,1.371264935E0,1.091316223E0,2.344248533E0
4.190480069E0,1.301462173E0,1.027798653E0,2.268579721E0
4.200367152E0,1.517009258E0,1.273938179E0,2.136769295E0
4.210254288E0,1.458631516E0,1.412235260E0,1.886524677E0
4.220141423E0,1.031373501E0,1.302770615E0,1.696350336E0
4.230028507E0,6.651530266E-1,1.034302711E0,1.481582046E0
4.239915590E0,4.951715469E-1,8.976440430E-1,1.437902689E0
4.249802725E0,6.312174797E-1,8.127288818E-1,1.096593618E0
4.259689861E0,8.777270317E-1,6.728649139E-1,5.904691815E-1
4.269576944E0,1.121797085E0,5.061264038E-1,1.023025662E-1
4.279464079E0,1.106398582E0,5.052633286E-1,-5.198150277E-1
4.289351163E0,8.132672310E-1,5.112476349E-1,-8.838450909E-1
4.299238298E0,3.948297501E-1,4.165592194E-1,-6.319161057E-1
4.309125434E0,-5.422067642E-2,3.050527573E-1,-4.226526320E-1
4.319012517E0,-4.296278954E-1,6.915378571E-2,-1.624257863E-1
4.328899652E0,-7.009549141E-1,-1.886415482E-1,1.550361812E-1
4.338786736E0,-8.309173584E-1,-3.317332268E-1,7.577262819E-2
4.348673871E0,-5.899944305E-1,-2.573556900E-1,1.288973093E-1
4.358560954E0,-1.467943192E-1,-1.265125275E-1,2.951603830E-1
4.368448090E0,1.045188904E-1,-8.684635162E-2,4.286459684E-1
4.378335225E0,-6.273269653E-3,-1.507549286E-1,2.450239360E-1
4.388222309E0,-3.184490204E-1,-1.312389374E-1,3.325504065E-2
4.398109444E0,-7.890400887E-1,-3.262805939E-2,9.424084425E-2
4.407996527E0,-1.062588692E0,4.857826233E-2,3.062208295E-1
4.417883663E0,-1.087219715E0,1.495199203E-1,2.129348814E-1
4.427770798E0,-1.083564281E0,2.659053802E-1,-8.644770086E-2
4.437657882E0,-1.186626196E0,2.353591919E-1,-1.186380088E-1
4.447545017E0,-1.542340279E0,1.498336792E-1,-1.525966525E-1
4.457432100E0,-1.682905674E0,3.276920319E-2,4.693692923E-2
4.467319236E0,-1.394293070E0,2.628612518E-2,8.203577995E-2
4.477206371E0,-7.619607449E-1,1.481981277E-1,-7.653421164E-2
4.487093454E0,-1.571040154E-1,1.466007233E-1,-2.758135796E-1
4.496980590E0,2.638926506E-1,-3.761863708E-2,-4.671917558E-1
4.506867673E0,4.886255264E-1,-3.135919571E-1,-4.869224131E-1
4.516754809E0,4.009253979E-1,-4.753293991E-1,-3.013208210E-1
4.526641944E0,-8.929610252E-2,-6.139411926E-1,-1.642990410E-1
4.536529027E0,-3.096551895E-1,-6.516561508E-1,-2.077853978E-1
4.546416163E0,-3.341734409E-1,-5.691795349E-1,-3.389288187E-1
4.556303246E0,-2.920565605E-1,-4.388065338E-1,-3.490511477E-1
4.566190382E0,-3.442630768E-1,-4.652042389E-1,-4.617677629E-1
4.576077517E0,-7.101297379E-2,-6.417474747E-1,-6.467776299E-1
4.585964600E0,4.836337566E-1,-8.745393753E-1,-8.476892114E-1
4.595851736E0,1.105421305E0,-9.221801758E-1,-1.166321278E0
4.605738819E0,1.702304125E0,-8.182973862E-1,-1.169054747E0
4.615625954E0,1.938857675E0,-8.912696838E-1,-8.440299630E-1
4.625513038E0,1.972970486E0,-8.463373184E-1,-5.777475238E-1
4.635400173E0,2.075579882E0,-6.983404160E-1,-5.229306221E-1
4.645287309E0,1.419641495E0,-7.826480865E-1,-6.272785664E-1
4.655174392E0,-8.449137211E-2,-8.541536331E-1,-4.398864508E-1
4.665061527E0,-9.015091062E-1,-8.461809158E-1,3.742520809E-1
4.674948663E0,-9.205113649E-1,-7.922782898E-1,4.443476200E-1
4.684835746E0,-1.660345644E-1,-5.996503830E-1,3.582859039E-1
4.694722882E0,1.080523133E0,-2.633094788E-1,2.461142540E-1
4.704609965E0,2.114635468E0,-2.140092850E-1,4.199659824E-2
4.714497100E0,2.817502260E0,-3.192844391E-1,8.601546288E-2
4.724384236E0,3.088803530E0,-5.038175583E-1,1.043639183E-1
4.734271319E0,2.931889057E0,-6.018810272E-1,3.255537748E-1
4.744158454E0,2.546401978E0,-6.010932922E-1,3.958165646E-1
4.754045538E0,2.158662319E0,-4.128160477E-1,4.186018705E-1
4.763932673E0,1.371437073E0,-2.960319519E-1,2.442530394E-1
4.773819809E0,-1.977974176E-1,-3.919639587E-1,3.101166487E-1
4.783706892E0,-1.217430711E0,-5.053625107E-1,7.079330683E-1
4.793594027E0,-1.427325487E0,-6.957273483E-1,1.038513184E0
4.803481163E0,-9.803895950E-1,-7.124166489E-1,9.048807621E-1
4.813368246E0,-1.328840256E-1,-6.405668259E-1,7.669371367E-1
4.823255382E0,6.858723164E-1,-6.196718216E-1,5.353373289E-1
4.833142465E0,1.135710716E0,-6.539201736E-1,3.251518011E-1
4.843029600E0,1.253824711E0,-7.011289597E-1,3.451454639E-1
4.852916736E0,1.130972385E0,-6.290979385E-1,4.534868002E-1
4.862803819E0,8.095229864E-1,-6.162710190E-1,4.545148611E-1
4.872690954E0,1.971507072E-1,-6.662302017E-1,3.064815998E-1
4.882578038E0,-2.703249454E-1,-7.345762253E-1,5.482981205E-1
4.892465173E0,-2.845582962E-1,-8.111934662E-1,7.762452364E-1
4.902352309E0,5.216836929E-3,-5.996866226E-1,5.242435932E-1
4.912239392E0,6.793582439E-1,-1.241807938E-1,2.945753336E-1
4.922126527E0,1.000738263E0,2.001361847E-1,2.887210846E-1
4.932013663E0,9.980056286E-1,1.943225861E-1,2.121484280E-1
4.941900746E0,8.568251133E-1,-1.035251617E-1,1.645781994E-1
4.951787882E0,6.595258713E-1,-3.188629150E-1,1.506389380E-1
4.961674965E0,7.258659601E-1,-2.921590805E-1,8.275139332E-2
4.971562100E0,1.097738743E0,-1.501073837E-1,1.812833548E-1
4.981449236E0,1.359618902E0,1.919555664E-2,-1.811900139E-1
4.991336319E0,1.750817299E0,1.369962692E-1,-4.776048660E-2
5.001223454E0,1.945947886E0,5.026845932E-1,4.369128942E-1
5.011110590E0,1.398407340E0,1.205983162E0,7.357227802E-1
5.020997673E0,6.067228317E-2,1.884854317E0,1.527910233E0
5.030884809E0,-1.618691444E0,1.487388611E0,2.879751682E0
5.040771892E0,-3.423572063E0,2.385168076E-1,3.530992985E0
5.050659027E0,-4.257089138E0,-7.560205460E-1,3.006640911E0
5.060546163E0,-3.382835150E0,-6.232986450E-1,2.403925419E0
5.070433246E0,-1.796769857E0,2.599363327E-1,1.522718787E0
5.080320382E0,-4.439175129E-1,9.406032562E-1,8.058313131E-1
5.090207517E0,2.622482777E-1,1.084681511E0,3.642581701E-1
5.100094600E0,-6.319284439E-3,1.053804398E0,1.338077784E-1
5.109981736E0,-5.504770279E-1,1.020744324E0,2.349839211E-1
5.119868819E0,-8.368399143E-1,8.573846817E-1,3.312120438E-1
5.129755954E0,-5.574336052E-1,6.072921753E-1,8.566129208E-2
5.139643090E0,1.208820343E-1,3.671550751E-1,-3.171439171E-1
5.149530173E0,3.999435902E-2,3.114786148E-1,-1.022933006E0
5.159417309E0,-1.635348797E-2,2.486667633E-1,-1.033440351E0
5.169304444E0,-3.643169403E-1,1.882829666E-1,-1.031280994E0
5.179191527E0,-1.022968292E0,-3.507804871E-2,-1.010424376E0
5.189078663E0,-1.447286725E0,-4.503421783E-1,-4.065845013E-1
5.198965798E0,-1.502272964E0,-9.062881470E-1,-2.573263645E-2
5.208852882E0,-1.127418518E0,-1.222544670E0,2.588589191E-1
5.218740017E0,-4.530032873E-1,-1.309876442E0,3.810248375E-1
5.228627100E0,1.373335123E-1,-1.206417084E0,5.462129116E-1
5.238514236E0,3.277666569E-1,-9.962148666E-1,2.996562719E-1
5.248401371E0,2.187357545E-1,-8.045787811E-1,7.376008034E-1
5.258288454E0,6.600570679E-2,-6.125793457E-1,8.658405542E-1
5.268175590E0,2.247517407E-1,-1.167268753E-1,1.054199338E0
5.278062725E0,5.080918670E-1,5.059928894E-1,9.870940447E-1
5.287949809E0,1.006503820E0,9.860820770E-1,3.848978281E-1
5.297836944E0,1.476773500E0,9.181318283E-1,-1.715874672E-1
5.307724079E0,1.551907539E0,5.587434769E-1,-5.314142108E-1
5.317611163E0,1.069699287E0,2.114124298E-1,-6.686757803E-1
5.327498298E0,5.223951340E-1,-4.782962799E-2,-8.416672349E-1
5.337385382E0,2.932232022E-1,-9.286880493E-3,-9.569799900E-1
5.347272517E0,3.041873574E-1,1.920976639E-1,-1.016671896E0
5.357159652E0,2.362641990E-1,3.358507156E-1,-1.037313461E0
5.367046736E0,2.935326993E-1,4.649496078E-1,-7.104173899E-1
5.376933871E0,3.120240271E-1,4.122695923E-1,-4.107858837E-1
5.386821007E0,3.832922578E-1,1.329927444E-1,-1.625144482E-1
5.396708090E0,5.249951482E-1,-1.452779770E-1,5.116325617E-2
5.406595225E0,7.439185381E-1,-4.727230072E-1,4.245477915E-2
5.416482361E0,1.061612248E0,-6.724758148E-1,-7.276719809E-2
5.426369444E0,1.194846749E0,-6.178255081E-1,-3.167437911E-1
5.436256579E0,1.217377305E0,-5.933275223E-1,-7.471468449E-1
5.446143715E0,1.152116299E0,-4.510641098E-1,-4.675717950E-1
5.456030798E0,8.985448480E-1,-1.508769989E-1,-8.443439007E-2
5.465917934E0,5.169819593E-1,-8.264541626E-3,2.684977055E-1
5.475805017E0,1.473315358E-1,-2.723598480E-2,6.553832293E-1
5.485692152E0,2.784729004E-4,-2.264747620E-1,5.874317288E-1
5.495579288E0,2.165067196E-1,-2.980775833E-1,3.724870086E-1
5.505466371E0,4.965128899E-1,-7.830238342E-2,1.890694499E-1
5.515353507E0,3.549015522E-1,1.621122360E-1,1.361749172E-1
5.525240642E0,-1.693415642E-1,2.995014191E-1,2.440845072E-1
5.535127725E0,-8.556293845E-1,2.777214050E-1,4.830121994E-3
5.545014861E0,-1.085497022E0,2.003078461E-1,-1.159627140E-1
5.554901996E0,-6.595063210E-1,5.972957611E-2,-1.147266626E-1
5.564789079E0,-2.664636374E-1,-4.185390472E-2,-1.657287478E-1
5.574676215E0,-5.677700043E-3,-1.098890305E-1,-7.397368550E-1
5.584563350E0,1.536637545E-1,-9.477806091E-2,-9.677151442E-1
5.594450434E0,-1.104087830E-1,-6.080627441E-3,-1.259494543E0
5.604337569E0,-7.342261076E-1,3.004455566E-2,-1.373027563E0
5.614224704E0,-1.099820137E0,1.143426895E-1,-1.455138445E0
5.624111788E0,-1.194199562E0,1.724328995E-1,-1.429432869E0
5.633998923E0,-1.018338442E0,2.183341980E-1,-1.343322515E0
5.643886059E0,-8.258008957E-1,1.254415512E-1,-1.265087605E0
5.653773142E0,-6.416056156E-1,-7.143020630E-4,-1.340214133E0
5.663660277E0,-3.522230387E-1,-1.189327240E-2,-8.904324770E-1
5.673547361E0,-3.463615179E-1,-1.253213882E-1,-5.669772625E-1
5.683434496E0,-4.790476561E-1,-3.092441559E-1,-8.865593374E-2
5.693321632E0,-6.315690279E-1,-5.989789963E-1,2.653781176E-1
5.703208715E0,-6.037257910E-1,-6.454477310E-1,2.862797678E-1
5.713095850E0,-5.413047075E-1,-4.325428009E-1,2.658538222E-1
5.722982986E0,-5.822371244E-1,-1.401338577E-1,1.023271382E-1
5.732870069E0,-7.089321613E-1,3.562545776E-2,1.204508394E-1
5.742757204E0,-8.137893677E-1,2.108001709E-2,1.956692636E-1
5.752644340E0,-1.040051460E0,-1.443271637E-1,2.583833039E-1
5.762531423E0,-1.331647277E0,-3.347206116E-1,5.412068218E-2
5.772418559E0,-1.463167787E0,-4.275207520E-1,1.857604980E-1
5.782305694E0,-1.140715957E0,-2.484960556E-1,2.353166938E-1
5.792192777E0,-1.063116670E0,-1.775341034E-1,-1.118040979E-1
5.802079913E0,-5.486209393E-1,-1.122770309E-1,5.744481087E-2
5.811967048E0,-2.212030888E-1,-1.441545486E-1,3.488624096E-2
5.821854132E0,-1.453518867E-2,-2.015562057E-1,-1.923155040E-2
5.831741267E0,-1.118004322E-1,-4.276580811E-1,-2.349136323E-1
5.841628402E0,1.044914722E-1,-3.311510086E-1,-4.709194303E-1
5.851515486E0,4.085314274E-1,4.151344299E-3,-1.744874418E-1
5.861402621E0,5.844736099E-1,4.538583755E-1,-5.038447976E-1
5.871289757E0,9.913330078E-1,9.193639755E-1,-2.966913283E-1
5.881176840E0,1.182300091E0,1.095477104E0,-1.864572465E-1
5.891063975E0,9.973216057E-1,1.158097267E0,-7.894879580E-2
5.900951111E0,3.319940567E-1,8.719186783E-1,-1.300288439E-1
5.910838194E0,-1.159744263E-1,4.625253677E-1,4.055769742E-2
5.920725329E0,-2.831058502E-1,1.800165176E-1,1.744870543E-1
5.930612465E0,-5.867862701E-2,1.642189026E-1,1.390472949E-1
5.940499548E0,3.209519386E-1,3.386383057E-1,2.792361751E-2
5.950386684E0,4.296178818E-1,4.486742020E-1,1.290981472E-1
5.960273819E0,8.975982666E-2,2.826499939E-1,1.902783215E-1
5.970160902E0,-4.444556236E-1,7.420444489E-2,3.694840148E-2
5.980048038E0,-7.046728134E-1,9.342193604E-2,1.050250828E-1
5.989935173E0,-9.013423920E-1,2.655096054E-1,3.508607447E-1
5.999822257E0,-7.828698158E-1,6.444492340E-1,7.428057790E-1
6.009709392E0,-7.802615166E-1,1.117674828E0,8.164142370E-1
6.019596527E0,-5.982184410E-1,1.406209946E0,-2.044701576E-2
6.029483611E0,-3.304934502E-1,1.446084976E0,-1.632663608E0
6.039370746E0,4.279327393E-1,1.445398331E0,-2.541474104E0
6.049257882E0,1.299454212E0,1.388491631E0,-2.530687332E0
6.059144965E0,1.420627594E0,1.026124001E0,-2.266824722E0
6.069032100E0,7.914118767E-1,4.620933533E-1,-1.891814113E0
6.078919236E0,-6.190967560E-2,-4.625797272E-2,-1.362374067E0
6.088806319E0,-4.965605736E-1,-2.132482529E-1,-7.831835747E-1
6.098693454E0,-4.762897491E-1,6.116771698E-2,-5.136914849E-1
6.108580590E0,-4.364409447E-1,3.473196030E-1,-2.757671475E-1
6.118467673E0,-1.750969887E-1,4.428911209E-1,-1.186415553E-1
6.128354809E0,5.215888023E-1,4.832897186E-1,-2.777856588E-2
6.138241944E0,1.549447536E0,3.248834610E-1,-1.912598312E-2
6.148129027E0,2.375655174E0,4.026794434E-2,6.890100241E-2
6.158016163E0,2.262900352E0,-4.339675903E-1,3.895725012E-1
6.167903298E0,1.343377590E0,-8.191833496E-1,9.465557337E-1
6.177790382E0,6.894326210E-1,-6.746535301E-1,1.272615075E0
6.187677517E0,7.091708183E-1,-2.103872299E-1,1.282330513E0
6.197564652E0,6.398978233E-1,2.005767822E-1,1.037387371E0
6.207451736E0,2.263693810E-1,2.981324196E-1,1.095464587E0
6.217338871E0,-2.773184776E-1,2.144742012E-1,1.263280511E0
6.227226007E0,-5.353746414E-1,2.143373489E-1,1.196930647E0
6.237113090E0,-6.591725349E-1,1.579318047E-1,8.174836636E-1
6.247000225E0,-4.833235741E-1,1.311812401E-1,4.986090362E-1
6.256887361E0,-2.072901726E-1,2.594590187E-1,2.508068383E-1
6.266774444E0,-5.297374725E-2,4.682035446E-1,4.776239395E-3
6.276661579E0,-1.310648918E-1,6.197619438E-1,-2.700686455E-1
6.286548715E0,-2.228918076E-1,8.972682953E-1,-4.831396937E-1
6.296435850E0,-4.132118225E-1,1.172291756E0,-5.431968570E-1
6.306322934E0,-7.872800827E-1,1.192687511E0,-6.040093899E-1
6.316210069E0,-1.067636013E0,1.034563541E0,-4.459997118E-1
6.326097204E0,-9.981050491E-1,8.500251770E-1,-3.797967434E-1
6.335984288E0,-6.933445930E-1,6.503486633E-1,-1.455314606E-1
6.345871423E0,-3.577151299E-1,3.363776207E-1,-1.643316448E-1
6.355758559E0,-9.016466141E-2,-1.189775467E-1,-9.273400158E-2
6.365645642E0,2.900743484E-2,-6.012558937E-1,2.748756111E-2
6.375532777E0,-2.983379364E-2,-9.659266472E-1,1.659794152E-1
6.385419913E0,-1.790304184E-1,-1.193200111E0,3.413169682E-1
6.395306996E0,6.496953964E-2,-9.469270706E-1,5.499485731E-1
6.405194132E0,5.873842239E-1,-3.424611092E-1,4.947887361E-1
6.415081267E0,8.099470139E-1,2.448954582E-1,4.886555076E-1
6.424968350E0,4.251279831E-1,6.833457947E-1,4.721188545E-1
6.434855486E0,-6.064996719E-1,8.043107986E-1,4.703675508E-1
6.444742621E0,-1.271123886E0,7.580108643E-1,5.329328179E-1
6.454629757E0,-1.085542202E0,5.822615623E-1,6.797443628E-1
6.464516840E0,-2.014842033E-1,5.492472649E-1,4.819712043E-1
6.474403975E0,7.029023170E-1,4.997177124E-1,4.641275853E-2
6.484291111E0,8.585114479E-1,2.299065590E-1,-3.603897393E-1
6.494178194E0,6.207780838E-1,-1.009931564E-1,-4.582756460E-1
6.504065329E0,4.763154984E-1,-2.150125504E-1,-2.842113376E-1
6.513952465E0,2.208051682E-1,-2.131080627E-1,-2.368380576E-1
6.523839548E0,8.635759354E-2,-2.240180969E-1,-4.385371506E-2
6.533726684E0,3.345346451E-2,-2.134189606E-1,-3.263390362E-1
6.543613819E0,-1.813220978E-2,-1.843652725E-1,-4.900836349E-1
6.553500902E0,-3.577709198E-3,-3.645858765E-1,-6.816043854E-1
6.563388038E0,-2.649843693E-1,-6.902360916E-1,-8.740649223E-1
6.573275173E0,-4.733805656E-1,-9.664564133E-1,-8.242098093E-1
6.583162309E0,-8.628582954E-2,-1.036552429E0,-6.663272381E-1
6.593049392E0,6.496369839E-1,-9.034652710E-1,-7.912634015E-1
6.602936527E0,1.187130928E0,-8.507471085E-1,-5.520300865E-1
6.612823663E0,1.426433325E0,-7.719068527E-1,-6.429593563E-1
6.622710746E0,1.215222836E0,-8.159933090E-1,-3.865079284E-1
6.632597882E0,5.787229538E-1,-1.091328621E0,-1.119256020E-1
6.642485017E0,-2.373907566E-1,-1.222599030E0,-2.030872703E-1
6.652372152E0,-8.131418228E-1,-1.182990074E0,2.109009027E-1
6.662259236E0,-8.793311715E-1,-9.170312881E-1,5.472673178E-1
6.672146371E0,-7.222910523E-1,-4.575119019E-1,5.300450325E-1
6.682033507E0,-2.090321779E-1,-1.725835800E-1,6.318348646E-1
6.691920590E0,4.546518326E-1,-3.213214874E-1,4.779366255E-1
6.701807725E0,1.383942127E0,-6.813230515E-1,7.917869091E-2
6.711694861E0,2.142710686E0,-1.073364258E0,-2.679439783E-1
6.721581996E0,2.623095036E0,-1.148981094E0,-3.620376587E-1
6.731469079E0,2.704768419E0,-8.324718475E-1,-9.246420860E-2
6.741356215E0,2.193437099E0,-3.300237656E-1,2.235637903E-1
6.751243350E0,1.571896315E0,5.403041840E-2,8.420337439E-1
6.761130434E0,1.150961399E0,1.665573120E-1,9.124094248E-1
6.771017569E0,9.733009934E-1,1.412572861E-1,9.962111712E-1
6.780904704E0,5.615081787E-1,-2.016935349E-1,6.642603874E-1
6.790791788E0,4.633023739E-1,-6.429290771E-1,5.792348385E-1
6.800678923E0,1.047781467E0,-8.239154816E-1,6.163792610E-1
6.810566059E0,1.456840038E0,-6.730813980E-1,3.574032784E-1
6.820453194E0,1.653317332E0,-3.535060883E-1,3.546473980E-1
6.830340277E0,1.477555871E0,-7.592487335E-2,5.648791790E-1
6.840227413E0,1.048424721E0,6.402683258E-2,5.226709843E-1
6.850114548E0,3.885593414E-1,-2.327528000E-1,5.477199554E-1
6.860001632E0,-2.890238762E-1,-6.494283676E-1,3.540844917E-1
6.869888767E0,-9.034943581E-1,-1.092725754E0,3.228025436E-1
6.879775902E0,-1.304138899E0,-1.493021011E0,2.578785419E-1
6.889662986E0,-1.120224237E0,-1.640562057E0,-1.416516304E-2
6.899550121E0,-4.681074619E-1,-1.410450935E0,-2.525674105E-1
6.909437257E0,1.115972996E-1,-7.898521423E-1,-5.132989883E-1
6.919324392E0,4.726878405E-1,-2.830190659E-1,-4.391980171E-1
6.929211475E0,6.669539213E-1,-2.377891541E-2,-3.821897507E-2
6.939098611E0,9.866417646E-1,2.219104767E-2,3.134155273E-2
6.948985746E0,1.431337953E0,-1.107368469E-1,-5.007982254E-2
6.958872829E0,1.798436761E0,-2.508945465E-1,1.059100628E-1
6.968759965E0,1.570033550E0,-2.285032272E-1,8.228650093E-1
6.978647100E0,1.186281681E0,-8.042812347E-2,9.887840748E-1
6.988534236E0,1.096506834E0,3.784322739E-1,6.261913776E-1
6.998421319E0,1.150661826E0,1.190308571E0,7.082221508E-1
7.008308454E0,9.321024418E-1,2.175770760E0,1.467326164E0
7.018195590E0,3.499177694E-1,2.486576080E0,2.353074551E0
7.028082673E0,-2.046952248E-1,1.882557869E0,2.687391043E0
7.037969809E0,-7.698159218E-1,1.057227135E0,2.153404474E0
7.047856944E0,-5.829424858E-1,6.923656464E-1,1.287507892E0
7.057744079E0,-7.774412632E-2,7.861099243E-1,3.633035421E-1
7.067631163E0,-5.206906796E-2,9.239692688E-1,-3.466987610E-1
7.077518298E0,-3.215662241E-1,1.367970467E0,-1.890369654E-1
7.087405434E0,-1.293660402E0,1.285342216E0,5.015136003E-1
7.097292517E0,-2.381823301E0,9.875259399E-1,1.153670788E0
7.107179652E0,-2.763506413E0,7.776517868E-1,1.139034510E0
7.117066788E0,-2.223608494E0,4.130392075E-1,4.294180870E-1
7.126953923E0,-1.582528949E0,-4.824542999E-2,-1.289609671E-1
7.136841007E0,-1.358073831E0,-4.514646530E-1,-1.093569994E-1
7.146728142E0,-1.454919577E0,-7.496767044E-1,-8.862221241E-2
7.156615277E0,-1.440901995E0,-7.117376328E-1,-2.472090721E-1
7.166502413E0,-1.589945078E0,-3.920650482E-1,1.802424192E-1
7.176389496E0,-1.885650635E0,-2.224102020E-1,1.095163226E0
7.186276632E0,-1.703824759E0,-3.521060944E-1,7.593671083E-1
7.196163767E0,-9.208495617E-1,-6.227502823E-1,7.032287121E-2
7.206050850E0,-3.352999687E-2,-8.523674011E-1,-4.483823776E-1
7.215937986E0,3.850619793E-1,-1.118906975E0,-5.375909209E-1
7.225825121E0,4.382160306E-1,-1.260233879E0,-6.219796538E-1
7.235712257E0,3.511477709E-1,-9.836397171E-1,-8.091557026E-1
7.245599340E0,3.426324129E-1,-5.462760925E-1,-1.044133544E0
7.255486475E0,2.631954551E-1,-5.188941956E-2,-1.250257850E0
7.265373611E0,1.424814463E-1,6.017913818E-1,-1.852980614E0
7.275260694E0,1.741106510E-1,1.294823647E0,-1.801343799E0
7.285147829E0,1.815424711E-1,1.413499832E0,-1.372375607E0
7.295034965E0,4.102143943E-1,8.478307724E-1,-1.244644642E0
7.304922100E0,7.086858749E-1,9.233951569E-2,-1.106425285E0
7.314809184E0,7.757681608E-1,-6.350727081E-1,-8.856379986E-1
7.324696319E0,6.378356814E-1,-1.122914314E0,-2.594253421E-1
7.334583454E0,4.230087996E-1,-1.203133583E0,2.911260128E-1
7.344470538E0,1.686873734E-1,-1.115787506E0,7.030502558E-1
7.354357673E0,1.036749482E-1,-1.147321701E0,8.197640181E-1
7.364244809E0,1.388173103E-1,-1.148726463E0,6.631417274E-1
7.374131944E0,5.284767151E-1,-8.953399658E-1,4.616175890E-1
7.384019027E0,1.024370432E0,-4.763431549E-1,3.797841668E-1
7.393906163E0,1.409438014E0,-1.529092789E-1,4.731434584E-2
7.403793298E0,1.581521749E0,7.740974426E-3,-8.911389112E-2
7.413680434E0,1.524445653E0,7.267570496E-2,-1.303707957E-1
7.423567517E0,1.181844592E0,1.132774353E-2,-2.486063242E-1
7.433454652E0,7.805075645E-1,-6.578350067E-2,-1.083357334E-1
7.443341788E0,4.562991858E-1,-2.157144547E-1,1.042952538E-1
7.453228871E0,2.580890656E-1,-3.068780899E-1,1.680492163E-1
7.463116007E0,2.844121456E-1,-3.563156128E-1,2.467027307E-1
7.473003142E0,4.049634933E-1,-2.735261917E-1,1.931064129E-1
7.482890277E0,6.641920805E-1,-1.067276001E-1,-1.316594779E-1
7.492777361E0,8.636395931E-1,6.963825226E-2,-1.835124195E-1
7.502664496E0,1.036270618E0,8.111000061E-2,-2.498271465E-1
7.512551632E0,1.222050786E0,1.169290543E-1,-1.196235418E-1
7.522438767E0,1.063519955E0,6.759166718E-2,-3.310063779E-1
7.532325850E0,8.804177046E-1,-1.190586090E-1,-1.236349344E-3
7.542212986E0,5.356414318E-1,-2.778339386E-1,4.061821997E-1
7.552100121E0,5.728220940E-2,-2.199335098E-1,3.717936873E-1
7.561987204E0,-8.832621574E-2,6.566238403E-2,-6.462666392E-2
7.571874340E0,-7.724857330E-2,2.980356216E-1,-3.103463948E-1
7.581761475E0,-1.673407555E-1,3.760528564E-1,-4.006247818E-1
7.591648611E0,-3.555955887E-1,4.240074158E-1,-3.803803325E-1
7.601535694E0,-5.615125895E-1,3.418102264E-1,-4.034759402E-1
7.611422829E0,-5.229589939E-1,1.656589508E-1,-3.049085438E-1
7.621309965E0,-4.637587070E-1,1.777648926E-2,-2.131374627E-1
7.631197100E0,-4.541058540E-1,-1.112747192E-1,-2.282905579E-2
7.641084184E0,-4.522702694E-1,-1.423664093E-1,9.880691767E-3
7.650971319E0,-4.826664925E-1,-9.400939941E-2,5.017122626E-2
7.660858454E0,-5.906326771E-1,7.564640045E-2,1.153927296E-1
7.670745538E0,-6.746006012E-1,9.768486023E-2,1.670081317E-1
7.680632673E0,-6.130189896E-1,-2.009391785E-2,1.692201197E-1
7.690519809E0,-3.211855888E-1,-1.470108032E-1,2.738817036E-2
7.700406944E0,5.579829216E-2,-1.200370789E-1,-2.299967110E-1
7.710294027E0,1.803815365E-1,1.368522644E-2,-3.360835016E-1
7.720181163E0,-4.245901108E-2,1.535425186E-1,-1.913353503E-1
7.730068298E0,-4.836120605E-1,3.244113922E-1,-1.071079224E-1
7.739955382E0,-9.818592072E-1,2.817201614E-1,-1.889291853E-1
7.749842517E0,-1.276140690E0,1.198730469E-1,-1.523967832E-3
7.759729652E0,-1.279584885E0,-2.989101410E-2,1.271742731E-1
7.769616788E0,-9.460868835E-1,-1.379652023E-1,-1.756821945E-2
7.779503871E0,-3.751580715E-1,-1.941356659E-1,-1.953369975E-1
7.789391007E0,2.570557594E-2,-2.398338318E-1,-3.809787929E-1
7.799278142E0,2.803039551E-1,-1.675357819E-1,-7.590181828E-1
7.809165277E0,3.798365593E-1,4.707431793E-2,-6.237586737E-1
7.819052361E0,1.543726921E-1,9.686565399E-2,-6.222168207E-1
7.828939496E0,-2.208733559E-2,8.809852600E-2,-5.956315994E-1
7.838826632E0,-2.610754967E-2,1.443700790E-1,-3.506859541E-1
7.848713715E0,-8.052849770E-2,1.141233444E-1,-2.479289919E-1
7.858600850E0,-5.666732788E-3,-1.292991638E-1,-1.707778722E-1
7.868487986E0,-3.688659668E-1,1.599903107E-1,4.551562667E-1
7.878375121E0,-4.903008938E-1,1.148338318E-1,2.325402200E-2
7.888262257E0,9.074783325E-2,3.903532028E-1,3.333471715E-2
7.898149340E0,5.872159004E-1,6.893739700E-1,4.577597976E-2
7.908036475E0,7.805981636E-1,6.875925064E-1,-1.153659225E-1
7.917923611E0,8.140263557E-1,5.423431396E-1,-2.258385718E-1
7.927810694E0,6.127457619E-1,2.340850830E-1,-5.675545335E-2
7.937697829E0,1.019964218E-1,-8.790874481E-2,2.095272243E-1
7.947584965E0,-3.182673454E-1,-2.420902252E-1,3.499593735E-1
7.957472100E0,-3.696293831E-1,-1.424226761E-1,1.301409304E-2
7.967359184E0,5.729007721E-2,2.950077057E-1,-6.389841437E-1
7.977246319E0,5.651102066E-1,6.859645844E-1,-1.171849966E0
7.987133454E0,7.548699379E-1,8.729915619E-1,-1.450125337E0
7.997020590E0,7.550129890E-1,8.644495010E-1,-1.566408992E0
8.006907673E0,5.679101944E-1,4.651870728E-1,-1.410614967E0
8.016794809E0,4.342699051E-1,7.414054871E-2,-1.062778473E0
8.026681944E0,3.840775490E-1,1.799659729E-1,-6.624788046E-1
8.036569079E0,3.130555153E-1,5.324382782E-1,-3.541138768E-1
8.046456163E0,2.144575119E-1,8.608150482E-1,-3.193448484E-2
8.056343298E0,7.831287384E-2,8.715896606E-1,1.603191942E-1
8.066230434E0,-5.534791946E-2,5.563564301E-1,5.812419951E-2
8.076117569E0,-3.184127808E-2,2.195596695E-1,5.588829517E-4
8.086004652E0,1.670594215E-1,2.872085571E-2,-3.784750402E-2
8.095891788E0,4.736862183E-1,2.428340912E-2,-1.457531154E-1
8.105778923E0,6.308021545E-1,7.528972626E-2,-8.378389478E-2
8.115666007E0,5.604119301E-1,1.111831665E-1,1.177444458E-1
8.125553142E0,2.113127708E-1,3.997230530E-2,2.966074944E-1
8.135440277E0,-9.578609467E-2,-2.577400208E-2,4.996603429E-1
8.145327413E0,-3.335123062E-1,4.455757141E-2,5.128905177E-1
8.155214496E0,-5.170617104E-1,1.947069168E-1,5.515142679E-1
8.165101632E0,-6.139841080E-1,3.733987808E-1,6.121336818E-1
8.174988767E0,-6.712341309E-1,4.628911018E-1,7.015374303E-1
8.184875902E0,-8.123216629E-1,4.222493172E-1,7.263190746E-1
8.194762986E0,-8.635525703E-1,4.608197212E-1,8.155579567E-1
8.204650121E0,-6.531767845E-1,6.601853371E-1,8.516336679E-1
8.214537257E0,-5.085687637E-1,8.619184494E-1,6.695758700E-1
8.224424392E0,-5.202417374E-1,9.100031853E-1,5.805508494E-1
8.234311475E0,-6.533241272E-1,9.221043587E-1,5.559003949E-1
8.244198611E0,-7.061481476E-1,9.949884415E-1,5.566008687E-1
8.254085746E0,-6.789722443E-1,1.076003551E0,4.320703745E-1
8.263972882E0,-5.393290520E-1,1.276210308E0,3.157833219E-1
8.273859965E0,-2.457113266E-1,1.475717545E0,2.060026675E-1
8.283747100E0,-4.392766953E-2,1.397739887E0,7.904657722E-2
8.293634236E0,-2.323884964E-1,1.102700233E0,-9.485208988E-2
8.303521371E0,-5.058155060E-1,8.642153740E-1,-1.378801465E-2
8.313408454E0,-6.719970703E-1,7.785129547E-1,1.172938347E-1
8.323295590E0,-7.758436203E-1,6.981940269E-1,3.222141862E-1
8.333182725E0,-7.177448273E-1,5.209531784E-1,6.667682528E-2
8.343069861E0,-5.030183792E-1,4.622941017E-1,6.371295452E-2
8.352956944E0,-4.481573105E-1,4.034347534E-1,-2.042311728E-1
8.362844079E0,-3.619546890E-1,2.539205551E-1,-6.098926663E-1
8.372731215E0,-2.486648560E-1,2.665977478E-1,-9.832003117E-1
8.382618350E0,-2.529015541E-1,4.156327248E-1,-9.149153233E-1
8.392505434E0,-5.060319901E-1,3.898749352E-1,-5.855853558E-1
8.402392569E0,-6.430163383E-1,2.478404045E-1,-1.449449360E-1
8.412279704E0,-4.158349037E-1,1.265025139E-1,-3.487731218E-1
8.422166840E0,-1.304574013E-1,1.905598640E-1,-4.027455449E-1
8.432053923E0,-8.889293671E-2,1.733660698E-1,5.178257227E-1
8.441941059E0,-3.090534210E-1,2.223777771E-2,1.348973274E0
8.451828194E0,-1.715674400E-1,-1.354603767E-1,1.489482641E0
8.461715329E0,2.260928154E-1,-2.835144997E-1,1.207156658E0
8.471602413E0,4.981966019E-1,-4.638099670E-1,7.594703436E-1
8.481489548E0,4.862465858E-1,-6.677379608E-1,5.628595352E-1
8.491376684E0,3.976697922E-1,-7.242870331E-1,5.072033405E-1
8.501263819E0,2.731795311E-1,-5.615735054E-1,4.165807366E-1
8.511150902E0,7.218027115E-2,-3.874344826E-1,3.419363201E-1
8.521038038E0,-2.036309242E-1,-2.917022705E-1,4.586999416E-1
8.530925173E0,-4.515776634E-1,-2.760257721E-1,4.810267091E-1
8.540812309E0,-4.633092880E-1,-1.695852280E-1,2.036048323E-1
8.550699392E0,-1.340670586E-1,-7.275962830E-2,-1.708323658E-1
8.560586527E0,2.731561661E-1,-1.522998810E-1,-4.132587314E-1
8.570473663E0,5.927095413E-1,-2.055263519E-1,-5.957227945E-1
8.580360798E0,6.671051979E-1,-2.089366913E-1,-6.367632151E-1
8.590247882E0,1.670589447E-1,-3.121280670E-1,-4.748358130E-1
8.600135017E0,-1.518521309E-1,-4.144172668E-1,-3.196431398E-1
8.610022152E0,5.202841759E-2,-3.377199173E-1,-3.504916430E-1
8.619909288E0,6.492867470E-1,-1.931505203E-1,-6.769912243E-1
8.629796371E0,1.322164059E0,-1.578445435E-1,-8.124488592E-1
8.639683507E0,1.655768156E0,-3.927183151E-1,-8.132033348E-1
8.649570642E0,1.782323599E0,-7.115936279E-1,-1.159373760E0
8.659457777E0,1.898662567E0,-9.483022690E-1,-1.301283360E0
8.669344913E0,2.010089397E0,-9.631204605E-1,-1.316370606E0
8.679231996E0,1.938552141E0,-9.245586395E-1,-1.230596066E0
8.689119132E0,1.468434453E0,-8.382740021E-1,-1.048824072E0
8.699006267E0,1.066298962E0,-7.634544373E-1,-6.553565264E-1
8.708893402E0,8.223274946E-1,-8.606300354E-1,-3.806933165E-1
8.718780486E0,7.696534395E-1,-9.756422043E-1,-4.186793566E-1
8.728667621E0,7.599378228E-1,-1.010848045E0,-5.677020550E-2
8.738554757E0,6.991445422E-1,-1.016839027E0,2.703747749E-1
8.748441892E0,9.966877699E-1,-1.078096390E0,1.067546606E-1
8.758328975E0,1.425633788E0,-1.048716545E0,-1.916215420E-1
8.768216111E0,1.645135760E0,-1.037878990E0,3.774924278E-1
8.778103246E0,1.648637056E0,-1.221768379E0,8.523762226E-1
8.787990382E0,1.710155964E0,-1.359519958E0,7.172887325E-1
8.797877465E0,1.804472566E0,-1.296581268E0,4.070427418E-1
8.807764600E0,1.835074663E0,-1.127402306E0,1.153507233E-1
8.817651736E0,1.423006415E0,-1.125789642E0,-1.889731884E-1
8.827538871E0,5.408345461E-1,-1.178551674E0,-2.800195217E-1
8.837426007E0,2.128493786E-2,-1.037765503E0,-3.092117310E-1
8.847313090E0,2.979755402E-3,-7.417144775E-1,-6.556097269E-1
8.857200225E0,3.171066046E-1,-4.290075302E-1,-4.080331326E-1
8.867087361E0,5.576122999E-1,-1.112422943E-1,-6.109621525E-1
8.876974444E0,2.368773222E-1,-9.245872498E-3,-1.767401695E-1
8.886861579E0,-6.052781343E-1,-2.650117874E-1,4.840571880E-1
8.896748715E0,-1.536880612E0,-7.328348160E-1,1.279594421E0
8.906635850E0,-1.650288343E0,-1.018445015E0,1.494778156E0
8.916522986E0,-6.665114164E-1,-3.081026077E-1,1.119920731E0
8.926410069E0,4.239225388E-1,1.046135902E0,1.555424452E0
8.936297204E0,4.595943093E-1,2.017771721E0,2.552191019E0
8.946184340E0,-6.033378839E-1,2.026420593E0,2.848123550E0
8.956071475E0,-1.975286484E0,1.334442139E0,2.912507057E0
8.965958611E0,-2.042237759E0,8.951339722E-1,2.337849617E0
8.975845694E0,-6.975091696E-1,1.079379082E0,1.109083533E0
8.985732829E0,7.158150673E-1,1.151036263E0,-3.307653666E-1
8.995619965E0,1.567947626E0,1.058190346E0,-1.010429382E0
9.005507100E0,1.320871353E0,9.930086136E-1,-1.042246580E0
9.015394184E0,5.280011296E-1,9.378690720E-1,-1.563160419E-1
9.025281319E0,-2.391470671E-1,7.534027100E-1,1.856788397E-1
9.035168454E0,-9.424990416E-1,4.556312561E-1,3.300470114E-1
9.045055590E0,-1.610785961E0,-2.787113190E-2,6.158291101E-1
9.054942673E0,-1.830054045E0,-4.124870300E-1,5.264701843E-1
9.064829809E0,-1.584704638E0,-4.497842789E-1,5.168828964E-1
9.074716944E0,-1.055615187E0,-3.653793335E-1,2.702494860E-1
9.084604079E0,-3.933155537E-2,6.224250793E-2,1.193436384E-1
9.094491163E0,9.854303598E-1,5.533695221E-1,-2.855569124E-1
9.104378298E0,1.490989089E0,5.017566681E-1,-7.650996447E-1
9.114265434E0,1.245455265E0,7.110786438E-2,-1.023838043E0
9.124152569E0,8.581898212E-1,-3.075456619E-1,-1.027844787E0
9.134039704E0,5.679456592E-1,-3.975648880E-1,-9.366689324E-1
9.143926788E0,2.132506967E-1,-1.901788712E-1,-8.311081529E-1
9.153813923E0,8.025853336E-2,1.981067657E-2,-6.852647066E-1
9.163701059E0,9.167712927E-2,1.747713089E-1,-7.625758648E-1
9.173588194E0,1.244590282E-1,3.845319748E-1,-7.634655237E-1
9.183475277E0,3.952242434E-2,4.338388443E-1,-7.543401718E-1
9.193362413E0,-2.904741764E-1,2.443094254E-1,-7.234445810E-1
9.203249548E0,-4.745233655E-1,-1.355199814E-1,-5.805491209E-1
9.213136684E0,-4.313624501E-1,-4.971132278E-1,-2.982777357E-1
9.223023767E0,-2.461427152E-1,-7.326946259E-1,-3.033363819E-1
9.232910902E0,1.480084062E-1,-9.283695221E-1,-2.681716681E-1
9.242798038E0,4.987194538E-1,-9.792375565E-1,-1.201698780E-1
9.252685173E0,5.435978770E-1,-1.055434227E0,1.070597172E-1
9.262572309E0,2.630670667E-1,-1.123248100E0,3.133111000E-1
9.272459392E0,-6.524622440E-2,-1.108149529E0,6.348352432E-1
9.282346527E0,-4.395714402E-1,-1.143515587E0,8.158745766E-1
9.292233663E0,-7.849965692E-1,-1.032922745E0,1.011425257E0
9.302120798E0,-9.798609614E-1,-7.355146408E-1,1.025464535E0
9.312007934E0,-9.100322723E-1,-3.947420120E-1,7.305492163E-1
9.321895017E0,-3.746341467E-1,-9.025573730E-2,5.954533815E-1
9.331782152E0,3.728178740E-1,3.197364807E-1,-8.246815205E-2
9.341669288E0,1.048243046E0,8.186092377E-1,-1.831303239E-1
9.351556423E0,1.181295514E0,9.938774109E-1,-4.514006376E-1
9.361443507E0,8.440673351E-1,9.316959381E-1,-5.610011816E-1
9.371330642E0,4.371814728E-1,8.169460297E-1,-3.693594933E-1
9.381217777E0,4.558062553E-2,5.982685089E-1,-4.364998043E-1
9.391104913E0,-1.639771461E-1,2.794389725E-1,-4.548248947E-1
9.400992048E0,-1.021456718E-2,-2.422332764E-4,-5.881313682E-1
9.410879132E0,4.348542690E-1,-2.870368958E-2,-9.081042409E-1
9.420766267E0,8.174278736E-1,4.390716553E-3,-1.022256374E0
9.430653402E0,9.693505764E-1,8.434295654E-3,-1.265755415E0
9.440540538E0,7.621927261E-1,-3.264617920E-2,-1.140808344E0
9.450427621E0,4.143786430E-1,-9.418678284E-2,-9.237100482E-1
9.460314757E0,1.122148037E-1,-1.662282944E-1,-7.441827059E-1
9.470201892E0,-4.072499275E-2,-2.226829529E-1,-5.428766608E-1
9.480089027E0,6.753206253E-3,-3.094282150E-1,-3.116142154E-1
9.489976163E0,1.813614368E-1,-3.073377609E-1,-3.585048616E-1
9.499863246E0,3.304750919E-1,-2.049274445E-1,-1.182661653E-1
9.509750382E0,2.033431530E-1,-2.477245331E-1,1.319206953E-1
9.519637517E0,-9.280896187E-2,-3.650169373E-1,1.693788171E-1
9.529524652E0,-2.069530487E-1,-4.035034180E-1,4.285008907E-1
9.539411736E0,-2.529468536E-1,-3.135232925E-1,4.144067764E-1
9.549298871E0,-9.643721581E-2,-1.990575790E-1,3.497455120E-1
9.559186007E0,1.485245228E-1,-2.310371399E-2,1.528162956E-1
9.569073142E0,3.426830769E-1,2.779502869E-1,1.056148708E-1
9.578960277E0,2.891266346E-1,4.509668350E-1,3.895228207E-1
9.588847361E0,-2.950525284E-2,4.091157913E-1,1.473118961E-1
9.598734496E0,-1.564967632E-1,1.538476944E-1,7.543176413E-2
9.608621632E0,-2.227065563E-1,-6.290245056E-2,-1.413178146E-1
9.618508767E0,-2.263460159E-1,-1.406526566E-1,-2.477741838E-1
9.628395902E0,-3.054053783E-1,-1.014432907E-1,-8.283321559E-2
9.638282986E0,-4.170403481E-1,9.906959534E-2,1.930134743E-1
9.648170121E0,-4.894320965E-1,2.851753235E-1,3.926584721E-1
9.658057257E0,-4.081361294E-1,4.177083969E-1,2.552884519E-1
9.667944392E0,-2.792844772E-1,4.779024124E-1,1.663047224E-1
9.677831475E0,-4.128975868E-1,4.104137421E-1,2.548165321E-1
9.687718611E0,-5.715317726E-1,3.287620544E-1,3.175002337E-1
9.697605746E0,-5.190374851E-1,3.778190613E-1,3.544563651E-1
9.707492882E0,-3.701915741E-1,5.010824203E-1,1.991105676E-1
9.717380017E0,-3.859930038E-1,4.883995056E-1,3.684224933E-2
9.727267100E0,-6.385977268E-1,4.062232971E-1,-8.375867456E-2
9.737154236E0,-9.572169781E-1,2.724103928E-1,1.520164311E-3
9.747041371E0,-9.351167679E-1,1.000576019E-1,1.696410775E-2
9.756928507E0,-6.494905949E-1,1.232080460E-1,-2.502479255E-1
9.766815590E0,-3.603019714E-1,3.108148575E-1,-4.699912369E-1
9.776702725E0,-1.415042877E-1,5.510768890E-1,-6.115673780E-1
9.786589861E0,6.081104279E-3,7.592687607E-1,-5.933979154E-1
9.796476996E0,-4.184150696E-2,9.186782837E-1,-4.774369895E-1
9.806364132E0,-3.430728912E-1,8.066425323E-1,-2.938870192E-1
9.816251215E0,-6.430344582E-1,5.048265457E-1,5.121065676E-2
9.826138350E0,-7.211637497E-1,4.038524628E-1,1.136188209E-2
9.836025486E0,-2.892589569E-1,5.664463043E-1,-5.933364034E-1
9.845912621E0,3.774676323E-1,8.203926086E-1,-1.278712392E0
9.855799757E0,7.921066284E-1,8.675632477E-1,-1.419381142E0
9.865686840E0,4.844365120E-1,5.242652893E-1,-1.121155977E0
9.875573975E0,-1.054191589E-2,-1.582241058E-2,-9.676020145E-1
9.885461111E0,-2.520112991E-1,-1.230916977E-1,-5.786045790E-1
9.895348246E0,-1.566863060E-1,1.616601944E-1,-3.682390153E-1
9.905235329E0,7.844209671E-2,5.530529022E-1,-1.240077615E-1
9.915122465E0,2.430944443E-1,8.199663162E-1,1.580950022E-1
9.925009600E0,2.668304443E-1,8.426103592E-1,1.916569471E-2
9.934896736E0,4.745984077E-1,1.054868698E0,1.292127371E-2
9.944783871E0,8.151640892E-1,1.180558205E0,3.067764640E-2
9.954671007E0,1.051117420E0,1.050758362E0,1.106369793E-1
9.964558090E0,9.493660927E-1,7.570686340E-1,5.457097292E-2
9.974445225E0,7.804441452E-1,2.720813751E-1,9.830996394E-2
9.984332361E0,6.218461990E-1,-1.741590500E-1,3.641429543E-1
9.994219496E0,4.882383347E-1,-4.702229500E-1,5.905123949E-1
1.000410658E1,2.312459946E-1,-4.989619255E-1,7.628129721E-1
1.001399372E1,-1.233377457E-1,-3.071684837E-1,1.203917503E0
1.002388085E1,-3.676643372E-1,1.492500305E-3,1.488712668E0
1.003376799E1,-3.924117088E-1,4.076766968E-1,1.465722919E0
1.004365512E1,-3.491969109E-1,8.536128998E-1,1.504173040E0
1.005354220E1,-4.108166695E-1,1.072945118E0,1.384615898E0
1.006342934E1,-2.348256111E-1,1.125298023E0,8.645139933E-1
1.007331648E1,3.023343086E-1,1.304808617E0,2.827410996E-1
1.008320361E1,6.585340500E-1,1.530756950E0,-3.668484092E-1
1.009309075E1,3.572230339E-1,1.480862141E0,-6.293005943E-1
1.010297783E1,-2.228488922E-1,1.290629387E0,-5.222891569E-1
1.011286496E1,-6.530747414E-1,9.639143944E-1,-3.864700794E-1
1.012275210E1,-8.210330009E-1,5.484004021E-1,-4.035253525E-1
1.013263924E1,-4.859480858E-1,2.338142395E-1,-3.579827547E-1
1.014252637E1,-1.073102951E-1,-3.902244568E-2,-4.099531770E-1
1.015241345E1,4.322528839E-2,-3.442320824E-1,-3.303093612E-1
1.016230059E1,5.786132812E-2,-5.151557922E-1,-2.370699495E-1
1.017218772E1,1.120953560E-1,-6.600832939E-1,-6.921380758E-2
1.018207486E1,1.305499077E-1,-7.514839172E-1,1.723879427E-1
1.019196194E1,-3.760199547E-1,-7.245388031E-1,9.929263592E-2
1.020184908E1,-9.745631218E-1,-5.490789413E-1,2.846183777E-1
1.021173622E1,-9.215807915E-1,-4.357337952E-1,2.847433090E-1
1.022162335E1,-2.884020805E-1,-3.760399818E-1,4.031567872E-1
1.023151049E1,2.809419632E-1,-3.772497177E-1,2.663764954E-1
1.024139757E1,5.520286560E-1,-4.101638794E-1,5.884319544E-2
1.025128470E1,3.850765228E-1,-3.302111626E-1,-5.917543173E-2
1.026117184E1,-8.302497864E-2,-2.725644112E-1,-7.991263270E-2
1.027105898E1,-5.785245895E-1,-1.895523071E-1,2.791839838E-2
1.028094611E1,-9.777669907E-1,-7.095050812E-2,7.919615507E-2
1.029083319E1,-1.127674580E0,1.928987503E-1,1.222627163E-1
1.030072033E1,-9.125285149E-1,5.481553078E-1,1.455671191E-1
1.031060746E1,-7.208361626E-1,6.824798584E-1,-7.414567471E-2
1.032049460E1,-6.095099449E-1,5.948991776E-1,-5.365669727E-1
1.033038174E1,-7.098755836E-1,2.344999313E-1,-5.268477201E-1
1.034026882E1,-9.966573715E-1,-2.020664215E-1,-6.745457649E-1
1.035015595E1,-1.097596645E0,-5.182185173E-1,-6.589588523E-1
1.036004309E1,-9.173235893E-1,-6.632981300E-1,-6.273752451E-1
1.036993023E1,-5.549058914E-1,-7.045087814E-1,-7.195981741E-1
1.037981736E1,-1.248178482E-1,-6.326217651E-1,-8.253747225E-1
1.038970450E1,3.742003441E-1,-5.100498199E-1,-8.753359914E-1
1.039959158E1,8.210020065E-1,-2.908811569E-1,-8.606373072E-1
1.040947872E1,1.165102005E0,-1.836023331E-1,-6.407676339E-1
1.041936585E1,1.308497429E0,-1.044301987E-1,-4.483863711E-1
1.042925299E1,9.821298122E-1,7.898330688E-3,-5.255624652E-1
1.043914012E1,3.652844429E-1,-3.995418549E-2,-4.050226808E-1
1.044902720E1,1.696341038E-1,-1.624269485E-1,-3.929177523E-1
1.045891434E1,4.848620892E-1,-3.974971771E-1,-6.790003777E-1
1.046880148E1,1.053731918E0,-6.587028503E-1,-7.907720804E-1
1.047868861E1,1.679732323E0,-8.200788498E-1,-7.938188314E-1
1.048857575E1,2.305472374E0,-8.224534988E-1,-9.943477511E-1
1.049846283E1,2.903405905E0,-6.203727722E-1,-8.934687972E-1
1.050834996E1,3.207292557E0,-4.107112885E-1,-5.988314152E-1
1.051823710E1,2.862579584E0,-3.997344971E-1,-3.109930754E-1
1.052812424E1,1.757341504E0,-5.510454178E-1,1.391357183E-1
1.053801137E1,4.629913568E-1,-6.374273300E-1,6.590390205E-1
1.054789845E1,-6.452956200E-1,-5.214023590E-1,7.116405964E-1
1.055778559E1,-9.758150578E-1,-4.429922104E-1,1.001769423E0
1.056767273E1,-6.856794357E-1,-4.975271225E-1,1.169208050E0
1.057755986E1,6.784474850E-2,-5.819549561E-1,8.717343807E-1
1.058744700E1,1.100415230E0,-7.073822021E-1,6.470844746E-1
1.059733413E1,1.854272962E0,-8.454713821E-1,3.345749378E-1
1.060722122E1,2.189409733E0,-8.790626526E-1,3.094952106E-1
1.061710835E1,1.829703689E0,-9.063844681E-1,4.351568222E-1
1.062699549E1,1.030354857E0,-1.025484085E0,5.539343357E-1
1.063688262E1,2.591220140E-1,-9.830179214E-1,5.532543659E-1
1.064676976E1,-2.705116272E-1,-8.037137985E-1,5.277016163E-1
1.065665684E1,-7.586039305E-1,-5.936889648E-1,4.592330456E-1
1.066654398E1,-1.115246058E0,-4.156799316E-1,2.343153954E-1
1.067643111E1,-1.067045212E0,-4.538488388E-1,3.189849854E-1
1.068631825E1,-6.116334200E-1,-5.476818085E-1,8.815729618E-2
1.069620538E1,-5.647492409E-2,-5.967693329E-1,-5.046451092E-2
1.070609247E1,4.839873910E-1,-6.149539948E-1,-1.414020061E-1
1.071597960E1,9.069453478E-1,-5.343761444E-1,-1.860859394E-1
1.072586674E1,1.022526979E0,-5.384435654E-1,1.977779865E-1
1.073575387E1,8.843154311E-1,-5.381727219E-1,3.789138794E-1
1.074564101E1,5.315808058E-1,-6.008138657E-1,3.942205906E-1
1.075552814E1,2.563762665E-1,-7.723932266E-1,2.418469191E-1
1.076541522E1,2.088366747E-1,-8.839092255E-1,-7.377254963E-2
1.077530236E1,2.430408001E-1,-8.244113922E-1,-2.889382839E-1
1.078518950E1,1.612898111E-1,-6.700325012E-1,-2.088999748E-2
1.079507663E1,8.922660351E-2,-5.175180435E-1,4.357858896E-1
1.080496377E1,3.052818775E-1,-4.207448959E-1,4.554475546E-1
1.081485085E1,6.425133944E-1,-3.876791000E-1,3.289479017E-1
1.082473799E1,8.413240910E-1,-4.630403519E-1,3.179366589E-1
1.083462512E1,8.214263916E-1,-3.624219894E-1,3.298487663E-1
1.084451226E1,7.755864859E-1,-7.209777832E-2,1.756576300E-1
1.085439939E1,6.936407089E-1,1.585493088E-1,3.469717503E-2
1.086428653E1,4.454451799E-1,1.762247086E-1,-2.604244947E-1
1.087417361E1,1.815601587E-1,1.199369431E-1,-3.028104305E-1
1.088406075E1,-6.732678413E-2,1.094827652E-1,-6.511926651E-2
1.089394788E1,-3.601785898E-1,3.240003586E-1,7.201646566E-1
1.090383502E1,-4.758358002E-1,6.900510788E-1,1.590965152E0
1.091372215E1,-2.359169722E-1,1.044617653E0,2.207098484E0
1.092360924E1,-1.667976379E-2,1.172740936E0,2.372520447E0
1.093349637E1,-3.628178835E-1,1.020370483E0,2.572307587E0
1.094338351E1,-1.448748231E0,4.801263809E-1,2.891946316E0
1.095327064E1,-2.206719875E0,2.488708496E-1,2.971017838E0
1.096315778E1,-2.046620846E0,7.085924149E-1,2.963842392E0
1.097304491E1,-1.340242386E0,1.299935341E0,2.402916193E0
1.098293200E1,-1.863894463E-1,1.485863686E0,1.712126136E0
1.099281913E1,7.992365956E-1,1.298995018E0,9.241780043E-1
1.100270627E1,1.018628240E0,1.188033104E0,2.590739727E-2
1.101259340E1,3.742001057E-1,1.309317589E0,-2.336093187E-1
1.102248054E1,-4.509458542E-1,1.593532562E0,1.724183559E-2
1.103236767E1,-1.301658869E0,1.492114067E0,-1.621972322E-1
1.104225476E1,-1.863324881E0,1.012646675E0,-2.551193237E-1
1.105214189E1,-1.830691338E0,3.236589432E-1,-3.106446266E-1
1.106202903E1,-1.519729376E0,-2.463159561E-1,-1.047304749E0
1.107191616E1,-1.258280993E0,-5.448923111E-1,-1.449082613E0
1.108180330E1,-9.653588533E-1,-6.710023880E-1,-1.521018744E0
1.109169043E1,-7.281407118E-1,-6.755151749E-1,-1.746180534E0
1.110157752E1,-5.373073220E-1,-6.739616394E-1,-1.425940514E0
1.111146465E1,-3.368337452E-1,-5.802745819E-1,-5.111854672E-1
1.112135179E1,-5.828738213E-2,-3.720808029E-1,4.804004431E-1
1.113123892E1,7.096979022E-2,-5.307464600E-1,6.958072186E-1
1.114112606E1,1.543578506E-1,-1.121731758E0,8.965187073E-1
1.115101319E1,2.856411040E-1,-1.506485939E0,7.399709225E-1
1.116090028E1,4.108413160E-1,-1.206146240E0,1.030310392E0
1.117078741E1,4.800708592E-1,-5.044460297E-1,8.827488422E-1
1.118067455E1,4.467118680E-1,2.226877213E-1,3.849979639E-1
1.119056168E1,9.466232061E-1,7.413339615E-1,-1.945251226E-2
1.120044882E1,1.679890871E0,9.494972229E-1,-7.764158249E-1
1.121033590E1,2.084498405E0,8.047351837E-1,-9.207729697E-1
1.122022304E1,1.964655995E0,3.817129135E-1,-7.518974543E-1
1.123011017E1,1.279512882E0,-8.024024963E-2,-3.345383406E-1
1.123999731E1,5.081543326E-1,-5.164251328E-1,1.631823778E-1
1.124988444E1,-1.928222179E-1,-7.424583435E-1,4.449784160E-1
1.125977158E1,-5.665785074E-1,-8.825626373E-1,7.252859473E-1
1.126965866E1,-4.204414487E-1,-8.128652573E-1,1.139914632E0
1.127954580E1,-4.141736031E-2,-6.418161392E-1,1.485572577E0
1.128943293E1,3.658633232E-1,-6.039924622E-1,1.396788001E0
1.129932007E1,5.584378242E-1,-5.985908508E-1,9.880809784E-1
1.130920720E1,4.275472164E-1,-5.463705063E-1,7.353075743E-1
1.131909429E1,5.439913273E-2,-3.994579315E-1,6.910163760E-1
1.132898142E1,-2.222101688E-1,-2.011337280E-1,4.813051224E-1
1.133886856E1,-2.958269119E-1,-1.654148102E-2,5.390554667E-1
1.134875569E1,-4.104955196E-1,1.557788849E-1,4.519195557E-1
1.135864283E1,-4.448022842E-1,3.744344711E-1,1.466957629E-1
1.136852996E1,-1.642283201E-1,7.673282623E-1,-1.213906705E-1
1.137841705E1,2.446415424E-1,1.058892250E0,-3.797865212E-1
1.138830418E1,6.827654839E-1,1.013333321E0,-5.501171350E-1
1.139819132E1,7.213370800E-1,5.640382767E-1,-8.864363432E-1
1.140807845E1,4.822227955E-1,-4.724216461E-2,-1.151548624E0
1.141796559E1,3.854756355E-1,-4.704999924E-1,-1.209317088E0
1.142785273E1,3.808057308E-1,-4.506120682E-1,-1.125663638E0
1.143773981E1,3.944878578E-1,-3.427362442E-1,-1.235271335E0
1.144762694E1,6.003177166E-1,-3.128652573E-1,-1.295241833E0
1.145751408E1,6.112391949E-1,-4.116420746E-1,-1.191030622E0
1.146740122E1,3.779942989E-1,-5.362396240E-1,-1.032319784E0
1.147728835E1,9.375810623E-2,-4.380407333E-1,-9.684183002E-1
1.148717549E1,-3.386828899E-1,-2.699270248E-1,-8.068892360E-1
1.149706257E1,-6.633224487E-1,-2.064256668E-1,-5.650868416E-1
1.150694970E1,-7.132987976E-1,-1.381721497E-1,-4.968553185E-1
1.151683684E1,-5.340528488E-1,-1.928014755E-1,-3.170266151E-1
1.152672398E1,-3.046557903E-1,-3.154048920E-1,-2.688064873E-1
1.153661111E1,-4.780197144E-2,-3.980731964E-1,-3.959269524E-1
1.154649819E1,2.975516319E-1,-3.212127686E-1,-6.178168058E-1
1.155638533E1,4.456164837E-1,-6.088733673E-2,-9.645051360E-1
1.156627246E1,7.056307793E-2,2.047100067E-1,-7.527520657E-1
1.157615960E1,-7.491886616E-1,6.153011322E-2,-1.698081940E-1
1.158604674E1,-1.207020283E0,-9.316730499E-2,1.214110553E-1
1.159593387E1,-1.053499222E0,1.831054688E-3,4.029771388E-1
1.160582095E1,-7.492885590E-1,2.607812881E-1,4.383016825E-1
1.161570809E1,-5.553255081E-1,5.486316681E-1,3.599974513E-1
1.162559523E1,-8.098237514E-1,6.055889130E-1,2.902886868E-1
1.163548236E1,-1.179691076E0,4.115772247E-1,3.205110431E-1
1.164536950E1,-1.268173695E0,2.322359085E-1,5.564621091E-1
1.165525663E1,-1.276010990E0,1.962471008E-1,6.458116770E-1
1.166514372E1,-1.160676718E0,3.200702667E-1,6.375079155E-1
1.167503085E1,-1.106840134E0,4.588880539E-1,4.782502651E-1
1.168491799E1,-1.140284777E0,3.401203156E-1,1.030029655E-1
1.169480512E1,-1.018532515E0,2.541208267E-1,-2.513994575E-1
1.170469226E1,-6.799373627E-1,3.742399216E-1,-3.636510968E-1
1.171457939E1,-5.554292202E-1,5.751066208E-1,-3.774324954E-1
1.172446648E1,-3.238303661E-1,6.569137573E-1,-5.386980772E-1
1.173435361E1,-1.044011116E-1,5.230045319E-1,-5.253287554E-1
1.174424075E1,-1.521134377E-1,1.353092194E-1,-7.033749819E-1
1.175412788E1,-3.896942139E-1,-1.725130081E-1,-4.690356255E-1
1.176401502E1,-7.204852104E-1,-2.742605209E-1,-7.351583242E-2
1.177390215E1,-1.117259741E0,-2.039985657E-1,2.388789654E-1
1.178378924E1,-1.139006138E0,1.160497665E-1,3.253026009E-1
1.179367637E1,-6.446385384E-1,6.176738739E-1,1.982065886E-1
1.180356351E1,-2.216587067E-1,8.517789841E-1,-7.422092557E-2
1.181345064E1,-1.900544167E-1,6.685380936E-1,-2.462319434E-1
1.182333778E1,-6.134634018E-1,3.951139450E-1,-2.646532953E-1
1.183322491E1,-1.097343206E0,1.816120148E-1,-1.509257853E-1
1.184311200E1,-1.325026274E0,2.579050064E-1,9.009236097E-2
1.185299913E1,-1.365170479E0,5.461158752E-1,1.197786331E-1
1.186288627E1,-1.219715595E0,7.736835480E-1,-1.546437144E-1
1.187277340E1,-7.722086906E-1,8.780088425E-1,-7.014080286E-1
1.188266054E1,-3.847789764E-2,9.809565544E-1,-1.803804398E0
1.189254767E1,7.497301102E-1,1.080412388E0,-2.537714481E0
1.190243481E1,1.112985134E0,1.027563572E0,-2.731853008E0
1.191232189E1,8.294224739E-1,7.720999718E-1,-2.544704676E0
1.192220903E1,2.236971855E-1,3.975868225E-1,-2.238842249E0
1.193209616E1,-1.699290276E-1,1.808795929E-1,-1.650396228E0
1.194198330E1,-2.335305214E-1,1.502437592E-1,-1.071332455E0
1.195187043E1,-2.292094231E-1,3.252210617E-1,-7.435747385E-1
1.196175757E1,-1.677560806E-1,7.498116493E-1,-4.406149387E-1
1.197164470E1,8.630990982E-2,1.164565086E0,2.195727825E-2
1.198153179E1,2.964320183E-1,1.309992313E0,-5.387872458E-2
1.199141892E1,6.749806404E-1,1.304749966E0,-1.187509298E-2
1.200130606E1,9.985537529E-1,1.255011559E0,-1.932074428E-1
1.201119319E1,1.118046761E0,9.557313919E-1,-2.905112505E-1
1.202108033E1,1.268311024E0,4.328494072E-1,-2.666865587E-1
1.203096747E1,1.594568253E0,-8.125305176E-2,-2.855540514E-1
1.204085460E1,1.917564869E0,-3.319110870E-1,-1.513387561E-1
1.205074168E1,1.643796921E0,-6.490216255E-1,8.612692356E-3
1.206062882E1,1.075284004E0,-9.274563789E-1,2.389267087E-1
1.207051595E1,6.118369102E-1,-9.070010185E-1,4.401198030E-1
1.208040309E1,3.420648575E-1,-7.100024223E-1,6.106190681E-1
1.209029022E1,8.567428589E-2,-5.215516090E-1,7.131471634E-1
1.210017736E1,-1.230211258E-1,-2.893390656E-1,7.467216253E-1
1.211006444E1,-2.761068344E-1,1.337475777E-1,8.484797478E-1
1.211995158E1,-3.152623177E-1,6.411666870E-1,7.933167219E-1
1.212983872E1,3.231048584E-2,1.156177521E0,6.600718498E-1
1.213972585E1,3.339076042E-1,1.492534637E0,6.339752674E-1
1.214961299E1,4.372105598E-1,1.602443695E0,3.672930598E-1
1.215950012E1,5.389046669E-1,1.565102577E0,1.538205147E-1
1.216938726E1,5.652966499E-1,1.392438412E0,3.018248379E-1
1.217927434E1,3.489599228E-1,9.625701904E-1,2.180234194E-1
1.218916148E1,-6.320142746E-2,3.025007248E-1,1.977717280E-1
1.219904861E1,-3.465895653E-1,-3.435754776E-1,2.940445542E-1
1.220893575E1,-1.343345642E-1,-6.212797165E-1,1.012378633E-1
1.221882288E1,-1.351594925E-1,-9.412665367E-1,9.559196234E-2
1.222871002E1,5.703496933E-2,-1.264593124E0,2.368939221E-1
1.223859715E1,1.675682068E-1,-1.453236580E0,1.472453475E-1
1.224848429E1,2.983446121E-1,-1.425709248E0,1.498285234E-1
1.225837137E1,3.914694786E-1,-1.282312870E0,6.306374073E-1
1.226825851E1,3.522047997E-1,-1.104888439E0,1.082117915E0
1.227814564E1,4.603252411E-1,-6.690053940E-1,1.190666199E0
1.228803278E1,4.165892601E-1,-2.618618011E-1,1.094227076E0
1.229791991E1,3.846454620E-1,-1.227388382E-1,1.097630978E0
1.230780705E1,6.565632820E-1,-1.834449768E-1,9.083443880E-1
1.231769418E1,9.587578773E-1,-1.332602501E-1,6.910693645E-1
1.232758127E1,9.983873367E-1,-1.229190826E-1,5.418680310E-1
1.233746840E1,8.340382576E-1,-1.073942184E-1,4.902516901E-1
1.234735554E1,2.319931984E-1,-9.675073624E-2,3.231496215E-1
1.235724267E1,-3.642225266E-1,-5.858516693E-2,2.304557562E-1
1.236712981E1,-7.195000648E-1,8.266019821E-2,2.294680774E-1
1.237701694E1,-7.741551399E-1,3.299961090E-1,2.262472361E-1
1.238690408E1,-5.268373489E-1,4.738607407E-1,1.536175162E-1
1.239679116E1,-6.774473190E-2,5.150127411E-1,-1.168130934E-1
1.240667830E1,4.697723389E-1,3.217668533E-1,-4.285111427E-1
1.241656543E1,8.331761360E-1,-1.605319977E-1,-7.243865728E-1
1.242645257E1,7.792301178E-1,-7.434825897E-1,-8.069849610E-1
1.243633970E1,4.122118950E-1,-1.022922039E0,-8.623733521E-1
1.244622684E1,-1.311373711E-1,-9.333534241E-1,-6.267285347E-1
1.245611398E1,-7.604215145E-1,-6.781272888E-1,-1.682397425E-1
1.246600111E1,-8.246805668E-1,-1.252927780E-1,-2.469087541E-1
1.247588819E1,-3.677129745E-2,3.668060303E-1,1.549977064E-2
1.248577533E1,1.000243902E0,2.027826309E-1,-3.605033159E-1
1.249566246E1,1.988159657E0,-5.299158096E-1,-1.031247139E0
1.250554960E1,2.846335888E0,-1.286716461E0,-1.193671584E0
1.251543674E1,3.128618240E0,-1.754317760E0,-1.053557396E0
1.252532387E1,3.020474434E0,-1.821753502E0,-9.397178888E-1
1.253521101E1,2.492784500E0,-1.645576477E0,-6.184893250E-1
1.254509814E1,1.658888221E0,-1.418449402E0,-4.312695265E-1
1.255498528E1,8.447965980E-1,-1.120538712E0,-8.920169473E-1
1.256487241E1,2.691778541E-1,-4.811410904E-1,-1.343454123E0
1.257475950E1,2.724159509E-2,8.353042603E-2,-8.610341549E-1
1.258464663E1,5.639338493E-1,8.035850525E-2,-9.359515905E-1
1.259453377E1,1.903127074E0,-1.419067383E-1,-2.019188404E0
1.260442090E1,2.553770542E0,1.212646484E0,-5.446916580E0
1.261430804E1,5.207859993E0,-1.654745579E0,3.344086409E0
1.262419517E1,2.022324085E0,-3.680772305E0,2.659146070E0
1.263408231E1,1.903340459E0,-2.834559441E0,9.238100052E-1
1.264396939E1,1.857492566E0,-2.277595520E0,1.290670156E0
1.265385653E1,1.154609561E0,-2.036690235E0,1.189120293E0
1.266374366E1,1.058124304E-1,-1.858790874E0,8.996117115E-1
1.267363080E1,-3.719307184E-1,-1.649205685E0,5.973644257E-1
1.268351793E1,-4.010080099E-1,-1.685140610E0,1.444268227E-2
1.269340507E1,-3.813444376E-1,-1.658259869E0,-1.271712780E-1
1.270329220E1,-7.189345360E-1,-1.293376923E0,5.166935921E-1
1.271317934E1,-6.044003963E-1,-7.023105621E-1,8.944997787E-1
1.272306642E1,7.235257626E-1,3.251686096E-1,5.252802372E-1
1.273295356E1,1.620263219E0,1.569347382E0,8.494930267E-1
1.274284069E1,1.403416991E-1,1.885332108E0,2.697391987E0
1.275272783E1,-2.596943378E0,8.906650543E-1,4.172273636E0
1.276261497E1,-4.471811295E0,-1.823225021E-1,3.413689852E0
1.277250210E1,-3.725995302E0,2.325897217E-1,2.192600727E0
1.278238924E1,-1.598179817E0,1.462997437E0,2.633090019E-1
1.279227637E1,5.886914134E-1,2.546924591E0,-1.565753937E0
1.280216351E1,1.611110210E0,3.026935577E0,-2.240759850E0
1.281205059E1,1.096225619E0,2.761068344E0,-1.809623599E0
1.282193773E1,-3.231861293E-1,2.115793228E0,-9.640418291E-1
1.283182486E1,-1.369557500E0,1.165105820E0,-4.264897108E-1
1.284171200E1,-1.486762762E0,3.364639282E-1,-2.789497375E-4
1.285159913E1,-8.858301640E-1,-5.997943878E-2,-5.616188049E-2
1.286148627E1,-1.514002085E-1,-1.445140839E-1,-7.922720909E-2
1.287137340E1,4.398542643E-1,-1.708841324E-1,-2.588009834E-2
1.288126054E1,7.439061403E-1,-4.127435684E-1,-3.584798574E-1
1.289114762E1,7.636988163E-1,-7.706661224E-1,-9.038652778E-1
1.290103476E1,2.366824299E-1,-1.083343506E0,-3.920536041E-1
1.291092189E1,-7.121420503E-1,-9.279718399E-1,4.922996759E-1
1.292080903E1,-1.374792695E0,-4.017095566E-1,3.606814146E-1
1.293069616E1,-1.077071786E0,3.284416199E-1,1.076498032E-1
1.294058330E1,-4.845361114E-1,5.871810913E-1,5.339145660E-3
1.295047043E1,-2.339390516E-1,4.919548035E-1,2.135252953E-1
1.296035757E1,-4.749888480E-1,2.179756165E-1,1.815404892E-1
1.297024470E1,-5.893591642E-1,4.317474365E-2,-9.112048149E-2
1.298013179E1,-6.282137036E-1,-1.173763275E-1,3.676165342E-1
1.299001892E1,-7.219595909E-1,-2.722835541E-2,-4.971897602E-2
1.299990606E1,-5.077396631E-1,5.288743973E-1,-5.529229641E-1
1.300979319E1,-4.949297607E-1,5.516347885E-1,-8.732589483E-1
1.301968033E1,-4.176121950E-1,2.666015625E-1,-6.168835163E-1
1.302956747E1,-3.597930670E-1,1.859521866E-1,-5.460954905E-1
1.303945460E1,-3.935430050E-1,-8.052825928E-3,-5.664896965E-1
1.304934174E1,-2.439126968E-1,-2.818908691E-1,-3.722507954E-1
1.305922887E1,-1.471135616E-1,-3.777723312E-1,-4.770672321E-2
1.306911595E1,-1.710124016E-1,-3.106441498E-1,1.652604342E-1
1.307900309E1,-4.117918015E-1,-2.006540298E-1,6.729298830E-1
1.308889022E1,-5.992554426E-1,-1.051778793E-1,1.025038958E0
1.309877736E1,-5.409432650E-1,-1.237802505E-1,4.087569714E-1
1.310866450E1,-2.306394577E-1,-1.296997070E-1,3.017277718E-1
1.311855163E1,2.722153664E-1,-3.098382950E-1,5.010674000E-1
1.312843877E1,7.776006460E-1,-5.923538208E-1,6.354886293E-1
1.313832590E1,8.675965071E-1,-8.451862335E-1,5.841513872E-1
1.314821304E1,4.703878164E-1,-1.050963402E0,9.266951084E-1
1.315810012E1,-1.368143559E-1,-1.213739395E0,1.384924173E0
1.316798726E1,-3.261594772E-1,-1.170566559E0,1.207262397E0
1.317787439E1,7.087564468E-2,-9.147119522E-1,5.663017035E-1
1.318776153E1,3.593964577E-1,-6.647214890E-1,3.657094240E-1
1.319764866E1,3.444464207E-1,-4.690485001E-1,2.155321836E-1
1.320753580E1,1.589488983E-2,-3.206338882E-1,3.777410984E-1
1.321742293E1,-3.722734451E-1,-2.671594620E-1,5.308957696E-1
1.322731007E1,-4.972844124E-1,-2.682714462E-1,1.197456717E-1
1.323719720E1,-3.469920158E-1,1.928138733E-2,-4.668395817E-1
1.324708434E1,2.104020119E-2,5.556592941E-1,-9.742482901E-1
1.325697142E1,4.638013840E-1,1.100758553E0,-1.313658357E0
1.326685856E1,7.139797211E-1,1.114728928E0,-1.456544995E0
1.327674569E1,6.828768253E-1,6.999683380E-1,-1.347989559E0
1.328663283E1,4.783682823E-1,2.913217545E-1,-1.297263026E0
1.329651997E1,2.252955437E-1,7.332801819E-3,-1.291512728E0
1.330640710E1,3.799848557E-1,-1.570720673E-1,-1.414075851E0
1.331629424E1,7.168698311E-1,-2.794303894E-1,-1.466795564E0
1.332618137E1,1.032117844E0,-2.387733459E-1,-1.450637102E0
1.333606851E1,9.835224152E-1,-1.594085693E-1,-1.191335082E0
1.334595564E1,5.032534599E-1,-7.886695862E-2,-1.133287430E0
1.335584272E1,-7.935523987E-3,-5.387878418E-2,-6.568636894E-1
1.336572986E1,-2.989752293E-1,-1.739692688E-2,-2.164376378E-1
1.337561700E1,-3.426334858E-1,8.503913879E-2,-8.055517077E-2
1.338550413E1,-1.430225372E-1,1.189985275E-1,1.126561016E-1
1.339539127E1,8.934712410E-2,1.179304123E-1,1.023717076E-1
1.340527840E1,1.984574795E-1,1.920404434E-1,1.864922941E-1
1.341516554E1,1.484820843E-1,2.003974915E-1,5.272476673E-1
1.342505267E1,-3.837394714E-2,1.167907715E-1,6.344341636E-1
1.343493981E1,-5.200791359E-2,1.714324951E-2,7.963039279E-1
1.344482689E1,-7.289528847E-2,-6.098175049E-2,7.008708119E-1
1.345471403E1,-1.363050938E-1,4.442119598E-2,5.269670486E-1
1.346460116E1,-2.330396175E-1,2.016830444E-1,3.333879113E-1
1.347448830E1,-2.588610649E-1,3.250732422E-1,-6.693501025E-2
1.348437543E1,-2.722139359E-1,2.909183502E-1,-4.011072814E-1
1.349426257E1,-1.132221222E-1,1.760711670E-1,-6.425622106E-1
1.350414970E1,1.047892570E-1,1.243476868E-1,-6.601741314E-1
1.351403684E1,8.412742615E-2,4.559040070E-2,-4.922531843E-1
1.352392398E1,-1.892805099E-1,-2.646064758E-2,-1.174523607E-1
1.353381111E1,-3.923273087E-1,6.213951111E-2,1.290046126E-1
1.354369825E1,-5.502858162E-1,2.373914719E-1,3.890976906E-1
1.355358533E1,-7.668890953E-1,4.193334579E-1,5.375244617E-1
1.356347246E1,-1.091013908E0,5.010309219E-1,7.622231841E-1
1.357335960E1,-1.131352186E0,4.590969086E-1,1.032144308E0
1.358324674E1,-9.330253601E-1,5.057458878E-1,9.029804468E-1
1.359313387E1,-5.889539719E-1,6.784095764E-1,5.819367766E-1
1.360302101E1,-4.568934441E-1,8.200111389E-1,1.785004586E-1
1.361290814E1,-5.039677620E-1,8.705310822E-1,-1.550915092E-1
1.362279528E1,-5.707402229E-1,8.274440765E-1,-3.580638468E-1
1.363268241E1,-4.579768181E-1,6.919050217E-1,-4.595676064E-1
1.364256955E1,-4.220619202E-1,4.979667664E-1,-6.104035378E-1
1.365245663E1,-6.422424316E-1,3.225593567E-1,-4.551782608E-1
1.366234377E1,-7.247405052E-1,2.364301682E-1,1.049602032E-1
1.367223090E1,-8.637952805E-1,1.020545959E-1,2.756187022E-1
1.368211804E1,-9.834332466E-1,4.019546509E-2,8.628259599E-2
1.369200517E1,-9.139866829E-1,9.193992615E-2,-2.725229561E-1
1.370189231E1,-4.048728943E-1,3.419332504E-1,-1.378382921E0
1.371177944E1,4.504618645E-1,8.168964386E-1,-2.118114948E0
1.372166658E1,9.403142929E-1,1.052203655E0,-2.078361750E0
1.373155372E1,7.416214943E-1,1.157675266E0,-1.679839373E0
1.374144085E1,-6.703281403E-2,1.156555176E0,-1.589313745E0
1.375132799E1,-6.759934425E-1,1.043896198E0,-1.344386339E0
1.376121507E1,-8.214888573E-1,9.926114082E-1,-1.073452950E0
1.377110220E1,-6.490573883E-1,1.019219875E0,-8.876971006E-1
1.378098934E1,-2.418365479E-1,1.102560997E0,-9.442887902E-1
1.379087648E1,5.207352638E-1,1.151687145E0,-1.123321295E0
1.380076361E1,1.331877232E0,9.793682098E-1,-1.227567792E0
1.381065075E1,1.901966572E0,5.816884041E-1,-9.757217169E-1
1.382053788E1,2.071819305E0,5.080652237E-2,-5.790562630E-1
1.383042502E1,1.837677002E0,-5.194296837E-1,-2.219789624E-1
1.384031215E1,1.547629356E0,-1.016873360E0,2.527268827E-1
1.385019929E1,1.410489082E0,-1.276502609E0,5.288205743E-1
1.386008637E1,1.222896099E0,-1.356737137E0,6.221296191E-1
1.386997351E1,1.120457172E0,-1.333742619E0,6.933282614E-1
1.387986064E1,9.201908112E-1,-1.117475986E0,8.709452748E-1
1.388974778E1,5.508332253E-1,-7.624220848E-1,1.071391106E0
1.389963491E1,3.855619431E-1,-2.438445091E-1,1.185369372E0
1.390952205E1,1.173262596E-1,2.562308311E-1,1.305572748E0
1.391940918E1,-9.203195572E-2,6.179690361E-1,1.283841968E0
1.392929632E1,-2.647218704E-1,8.283972740E-1,1.203216314E0
1.393918345E1,-4.622182846E-1,1.037454605E0,8.723518252E-1
1.394907059E1,-5.666255951E-1,1.270248413E0,4.515945613E-1
1.395895773E1,-4.158678055E-1,1.557466507E0,1.997881383E-1
1.396884486E1,-1.755084991E-1,1.803106308E0,-1.227206215E-1
1.397873200E1,-3.010749817E-3,1.958643436E0,-3.083779812E-1
1.398861913E1,-4.258251190E-2,1.662121296E0,-5.187442899E-1
1.399850622E1,-2.370324135E-1,1.068018436E0,-7.058330774E-1
1.400839335E1,-5.770220757E-1,3.925499916E-1,-7.603981495E-1
1.401828049E1,-8.700056076E-1,-9.543991089E-2,-6.488580108E-1
1.402816762E1,-1.230525970E0,-5.831480026E-1,-4.300358295E-1
1.403805476E1,-1.313180447E0,-1.086455345E0,4.330536723E-2
1.404794189E1,-1.064634323E0,-1.389391899E0,3.274387717E-1
1.405782903E1,-6.410675049E-1,-1.663977146E0,7.998262048E-1
1.406771616E1,-3.628273010E-1,-1.707316875E0,1.012839079E0
1.407760330E1,-2.787294388E-1,-1.385444641E0,9.618763924E-1
1.408749043E1,-3.708696365E-1,-9.587016106E-1,1.112308741E0
1.409737757E1,-1.453647614E-1,-5.863595009E-1,1.278573036E0
1.410726541E1,2.217650414E-1,-3.428044319E-1,1.233379364E0
1.411715255E1,9.167313576E-1,4.134130478E-2,9.145951271E-1
1.412703963E1,1.271037579E0,2.985978127E-1,4.784208536E-1
1.413692676E1,8.543772697E-1,3.017888069E-1,3.113663197E-1
1.414681401E1,3.150320053E-1,2.121839523E-1,3.617991805E-1
1.415670114E1,2.206707001E-2,2.082023621E-1,3.985596895E-1
1.416658828E1,-1.348304749E-2,3.451457024E-1,4.564621449E-1
1.417647541E1,-4.512739182E-2,4.149947166E-1,4.304422140E-1
1.418636255E1,-2.687311172E-2,3.157672882E-1,3.180652857E-1
1.419624968E1,3.239297867E-1,3.693709373E-1,2.598179579E-1
1.420613682E1,9.361839294E-2,4.556040764E-1,1.199006438E-1
1.421602395E1,-4.983954430E-1,2.868671417E-1,-7.214182615E-2
1.422591109E1,-6.597747803E-1,9.673404694E-2,-1.782962084E-1
1.423579822E1,-4.586009979E-1,7.647514343E-2,-3.615050912E-1
1.424568536E1,-4.144191742E-3,1.445045471E-1,-4.973015189E-1
1.425557250E1,5.204133987E-1,1.882572174E-1,-8.269296885E-1
1.426545963E1,9.170274734E-1,1.816654205E-2,-7.954863310E-1
1.427534671E1,1.218894958E0,-3.195505142E-1,-9.077904224E-1
1.428523385E1,1.427110434E0,-5.017728806E-1,-1.384388566E0
1.429512098E1,1.170798302E0,-5.903797150E-1,-1.139201283E0
1.430500812E1,5.211153030E-1,-6.723031998E-1,-9.191983938E-1
1.431489526E1,-3.017647266E-1,-6.987600327E-1,-8.262239099E-1
1.432478239E1,-9.269133806E-1,-6.573381424E-1,-5.389507413E-1
1.433466953E1,-7.791064978E-1,-6.186113358E-1,-2.592829466E-1
1.434455666E1,1.101341248E-1,-7.132511139E-1,-2.591408491E-1
1.435444380E1,1.403821468E0,-7.685890198E-1,-4.523465633E-1
1.436433093E1,2.580364943E0,-6.135549545E-1,-6.352096796E-1
1.437421807E1,3.222968102E0,-5.150136948E-1,-5.847309828E-1
1.438410520E1,3.200303316E0,-5.556325912E-1,-5.144540071E-1
1.439399234E1,2.585891724E0,-7.424316406E-1,-6.400417089E-1
1.440387947E1,1.562394023E0,-8.243722916E-1,-7.532181740E-1
1.441376661E1,1.590380073E-1,-7.511301041E-1,-4.846570492E-1
1.442365375E1,-1.176606417E0,-5.033979416E-1,-1.382901669E-1
1.443354088E1,-1.661321521E0,-1.705236435E-1,5.359640121E-1
1.444342802E1,-1.311026692E0,-4.375934601E-2,7.267928123E-1
1.445331510E1,-4.486154318E-1,-1.468391418E-1,3.498506546E-1
1.446320229E1,7.446873784E-1,-2.256307602E-1,-2.495307922E-1
1.447308937E1,1.653754354E0,-3.641614914E-1,-2.656730413E-1
1.448297651E1,2.048541546E0,-6.752405167E-1,7.471799850E-2
1.449286364E1,1.990854502E0,-1.000886917E0,1.228766441E-1
1.450275078E1,1.646510243E0,-1.089941025E0,3.631460667E-1
1.451263791E1,1.076304913E0,-1.054822922E0,2.964458466E-1
1.452252505E1,5.792384148E-1,-9.012575150E-1,4.732081890E-1
1.453241218E1,-3.829308748E-1,-8.951606750E-1,3.985843658E-1
1.454229932E1,-1.471983910E0,-1.011385918E0,5.415956974E-1
1.455218645E1,-1.589445829E0,-9.883737564E-1,4.948666096E-1
1.456207359E1,-7.911241055E-1,-1.032936096E0,9.368157387E-2
1.457196072E1,4.152854681E-1,-7.627258301E-1,-2.379435301E-1
1.458184786E1,1.289248705E0,-3.294534683E-1,-2.334476709E-1
1.459173500E1,1.827622294E0,-1.545190811E-1,-1.961725950E-1
1.460162213E1,1.994145513E0,-1.692209244E-1,1.554250717E-3
1.461150926E1,1.844478607E0,-3.464202881E-1,-2.439880371E-2
1.462139640E1,1.557819366E0,-5.189924240E-1,-1.243438721E-1
1.463128354E1,1.138862491E0,-6.432275772E-1,-1.084160805E-1
1.464117062E1,7.340691090E-1,-6.978616714E-1,1.185576916E-1
1.465105776E1,3.280098438E-1,-6.539916992E-1,3.059773445E-1
1.466094489E1,3.482437134E-1,-5.223369598E-1,3.780474663E-1
1.467083203E1,7.095285654E-1,-5.686531067E-1,5.032677650E-1
1.468071916E1,1.197000504E0,-8.068561554E-1,2.289583683E-1
1.469060630E1,1.786915779E0,-1.049427032E0,-1.445790529E-1
1.470049343E1,2.492039680E0,-1.013301849E0,-5.785989761E-1
1.471038057E1,2.949137688E0,-3.357563019E-1,-1.290766001E-1
1.472026770E1,2.822274923E0,8.995752335E-1,3.590142727E-1
1.473015484E1,1.802316189E0,2.583202362E0,1.479504347E0
1.474004197E1,-5.227255821E-1,3.065888405E0,4.030101776E0
1.474992911E1,-4.573709488E0,1.232576370E0,5.644719124E0
1.475981625E1,-7.764591217E0,-1.029614449E0,5.649131775E0
1.476970338E1,-7.205873013E0,-1.384026527E0,4.161049843E0
1.477959052E1,-3.739602089E0,5.726623535E-2,2.398405790E0
1.478947765E1,-3.160161972E-1,1.502028465E0,1.232993603E-2
1.479936479E1,2.157630444E0,2.220359802E0,-1.374882221E0
1.480925192E1,2.597319365E0,2.522256851E0,-1.190698624E0
1.481913906E1,8.858183026E-1,2.312688828E0,-1.444613934E-2
1.482902619E1,-1.221803784E0,1.368401527E0,4.433269501E-1
1.483891333E1,-2.086966038E0,1.272010803E-1,1.685169935E-1
1.484880046E1,-1.557910323E0,-5.364418030E-1,-5.698292255E-1
1.485868760E1,-1.084387302E-1,-1.962938309E-1,-9.355149269E-1
1.486857468E1,1.160107136E0,3.848409653E-1,-1.081944227E0
1.487846182E1,1.493242264E0,6.764106750E-1,-1.163863540E0
1.488834895E1,1.086299419E0,4.921169281E-1,-9.704310298E-1
1.489823609E1,2.187736630E-1,1.773452759E-2,-5.666118264E-1
1.490812322E1,-5.543290377E-1,-4.416656494E-1,8.804154396E-2
1.491801036E1,-7.643080950E-1,-6.499185562E-1,5.115073919E-1
1.492789750E1,-3.393875957E-1,-6.595039368E-1,5.794979334E-1
1.493778463E1,1.757012606E-1,-4.345903397E-1,1.828833818E-1
1.494767176E1,3.159047961E-1,-5.015754700E-2,-1.250183582E-2
1.495755890E1,8.428370953E-2,1.586523056E-1,-1.159679890E-2
1.496744604E1,-2.411889434E-1,1.498088837E-1,-1.546975374E-1
1.497733317E1,-4.796634316E-1,3.444004059E-2,-4.430895448E-1
1.498722031E1,-6.889977455E-1,-9.411811829E-2,-4.668622613E-1
1.499710744E1,-7.674666643E-1,1.217365265E-2,-3.267216682E-1
1.500699458E1,-7.486429214E-1,2.044029236E-1,-3.965982795E-1
1.501688171E1,-7.604548335E-1,3.746328354E-1,-1.661905050E-1
1.502676885E1,-7.859590650E-1,4.706525803E-1,-6.647384167E-2
1.503665598E1,-9.421125650E-1,3.593568802E-1,-1.917500496E-1
1.504654312E1,-1.013731241E0,9.397697449E-2,-3.278116584E-1
1.505643026E1,-1.214862466E0,-1.366071701E-1,-2.800359726E-1
1.506631739E1,-1.554243803E0,-1.895418167E-1,-1.298676729E-1
1.507620453E1,-1.726752758E0,-2.731504440E-1,-3.795194626E-2
1.508609166E1,-1.414335608E0,-2.962331772E-1,-1.005808115E-1
1.509597880E1,-6.485611200E-1,-2.967720032E-1,-8.238601685E-2
1.510586593E1,1.164374501E-1,-2.986202240E-1,-8.448779583E-2
1.511575307E1,5.532724857E-1,-1.943693161E-1,-3.531262279E-1
1.512564020E1,5.859748125E-1,-8.261680603E-2,-1.348158717E-1
1.513552734E1,4.509899616E-1,-3.993225098E-2,5.434513092E-2
1.514541447E1,5.832027197E-1,-2.140645981E-1,-2.312838435E-1
1.515530156E1,7.287185788E-1,-4.898109436E-1,-5.110781789E-1
1.516518869E1,7.366702557E-1,-5.779705048E-1,-8.995904922E-1
1.517507583E1,5.556151867E-1,-4.741992950E-1,-1.164169550E0
1.518496296E1,1.441340446E-1,-3.935890198E-1,-1.223396778E0
1.519485010E1,-4.719730616E-1,-5.194015503E-1,-9.759184122E-1
1.520473723E1,-8.674759865E-1,-6.597318649E-1,-7.768255472E-1
1.521462437E1,-8.054713607E-1,-7.310409546E-1,-6.105132103E-1
1.522451150E1,-3.721894622E-1,-6.003322601E-1,-6.210917234E-1
1.523439864E1,1.063021421E-1,-3.405494690E-1,-4.059032500E-1
1.524428578E1,3.081828356E-1,-2.175407410E-1,-3.887684345E-1
1.525417291E1,3.800500631E-1,-1.496572495E-1,-3.939633667E-1
1.526406005E1,3.369935751E-1,-2.870912552E-1,-3.172842860E-1
1.527394718E1,4.215506315E-1,-4.787578583E-1,-1.482333541E-1
1.528383432E1,3.231003284E-1,-6.403894424E-1,2.827072144E-2
1.529372145E1,-5.739092827E-3,-6.065521240E-1,3.200123310E-1
1.530360859E1,-4.257365465E-1,-4.247417450E-1,7.962069511E-1
1.531349572E1,-5.859521627E-1,-1.092557907E-1,1.064926386E0
1.532338286E1,-5.018408298E-1,2.390060425E-1,9.091783762E-1
1.533327000E1,-2.753019333E-3,5.664491653E-1,6.799941063E-1
1.534315713E1,5.752763748E-1,7.668962479E-1,6.941288710E-1
1.535304427E1,7.741889954E-1,6.469087601E-1,4.307922125E-1
1.536293140E1,6.513738632E-1,2.646484375E-1,1.138897538E-1
1.537281854E1,4.903028011E-1,-9.467315674E-2,4.655951262E-2
1.538270567E1,-6.314516068E-3,-2.437095642E-1,-1.073503196E-1
1.539259281E1,-6.568973064E-1,-2.201795578E-1,2.106335759E-2
1.540247994E1,-1.140956283E0,-1.891670227E-1,3.045792580E-1
1.541236708E1,-1.122697353E0,-1.519441605E-1,4.669537544E-1
1.542225421E1,-6.820759773E-1,2.031803131E-2,2.653626800E-1
1.543214135E1,-8.423280716E-2,2.485256195E-1,2.540831566E-1
1.544202848E1,1.540608406E-1,4.654607773E-1,7.721936703E-2
1.545191562E1,2.537851334E-1,5.960569382E-1,1.395493746E-3
1.546180276E1,4.563164711E-2,4.425258636E-1,1.146245003E-2
1.547168989E1,-2.586619854E-1,4.869270325E-2,-1.283467859E-1
1.548157703E1,-3.512098789E-1,-3.327655792E-1,-3.076573610E-1
1.549146416E1,-1.706387997E-1,-4.469785690E-1,-4.315980077E-1
1.550135130E1,7.867193222E-2,-5.205793381E-1,-6.453287601E-1
1.551123843E1,-3.848290443E-2,-5.210695267E-1,-7.227992415E-1
1.552112557E1,-4.251232147E-1,-3.199777603E-1,-6.354843378E-1
1.553101270E1,-7.180144787E-1,-9.782886505E-2,-5.176515579E-1
1.554089984E1,-6.341176033E-1,1.004543304E-1,-1.872717440E-1
1.555078697E1,-5.041849613E-1,1.853713989E-1,-1.002590656E-1
1.556067411E1,-3.745603561E-1,3.580169678E-1,-5.859108269E-2
1.557056124E1,-2.801542282E-1,4.849443436E-1,1.714308262E-1
1.558044838E1,-2.339801788E-1,5.237617493E-1,9.187217057E-2
1.559033552E1,-2.807798386E-1,6.404714584E-1,-7.100629210E-1
1.560022265E1,-2.336454391E-1,1.017297745E0,-9.422699213E-1
1.561010979E1,-2.928152084E-1,1.269840240E0,-9.448739886E-1
1.561999692E1,-2.831916809E-1,1.321736336E0,-8.844166994E-1
1.562988406E1,5.454635620E-2,1.145187378E0,-6.103445292E-1
1.563977114E1,1.563353539E-1,7.033948898E-1,-7.028318644E-1
1.564965833E1,3.228111267E-1,3.852939606E-1,-7.390900254E-1
1.565954541E1,4.608612061E-1,3.909063339E-1,-8.963385224E-2
1.566943260E1,2.198567390E-1,6.631565094E-1,2.280485332E-1
1.567931968E1,2.691187859E-1,1.067748070E0,-2.139925957E-2
1.568920682E1,4.813833237E-1,1.324871063E0,-4.517816007E-1
1.569909395E1,6.825656891E-1,1.397655487E0,-3.279133439E-1
1.570898109E1,5.679759979E-1,1.193252563E0,-3.759556711E-1
1.571886822E1,5.857696533E-1,7.385997772E-1,-2.213196009E-1
1.572875536E1,6.545252800E-1,1.264524460E-1,-1.491903067E-1
1.573864250E1,7.843074799E-1,-2.586193085E-1,-1.482389718E-1
1.574852968E1,8.126816750E-1,-3.374071121E-1,9.481586516E-2
1.575841682E1,6.748356819E-1,-3.529291153E-1,5.916744471E-1
1.576830390E1,3.978896141E-1,-3.294773102E-1,7.438403368E-1
1.577819104E1,1.902318001E-1,-2.028388977E-1,9.341296554E-1
1.578807817E1,5.728673935E-2,2.144622803E-2,7.587854862E-1
1.579796531E1,1.614298820E-1,2.674970627E-1,4.232895076E-1
1.580785244E1,4.955034256E-1,4.664821625E-1,1.584457904E-1
1.581773958E1,7.638616562E-1,5.652542114E-1,9.622255713E-2
1.582762671E1,8.482532501E-1,4.741525650E-1,-1.744636521E-2
1.583751385E1,6.923651695E-1,3.873596191E-1,-3.702741116E-2
1.584740098E1,3.967690468E-1,3.630361557E-1,1.078931540E-1
1.585728812E1,2.566299438E-1,2.681541443E-1,1.929722726E-1
1.586717526E1,3.666348457E-1,2.163248062E-1,2.648156583E-1
1.587706239E1,4.999079704E-1,1.362867355E-1,3.441824913E-1
1.588694953E1,4.191884995E-1,4.617309570E-2,2.766724229E-1
1.589683666E1,1.924552917E-1,1.008415222E-1,2.450219989E-1
1.590672380E1,-4.814004898E-2,1.396083832E-1,4.864744246E-1
1.591661093E1,-2.399687767E-1,1.215381622E-1,5.007304549E-1
1.592649807E1,-4.795002937E-1,9.980964661E-2,5.189088583E-1
1.593638520E1,-7.898182869E-1,1.806421280E-1,3.508400321E-1
1.594627234E1,-9.733943939E-1,3.357257843E-1,3.979339600E-1
1.595615947E1,-1.141642094E0,5.298986435E-1,5.917862058E-1
1.596604661E1,-1.086389542E0,7.794713974E-1,6.613791585E-1
1.597593374E1,-5.832357407E-1,9.963712692E-1,1.947256774E-1
1.598582088E1,8.315563202E-2,1.001865387E0,-2.901390493E-1
1.599570802E1,4.788680077E-1,7.240753174E-1,-3.598271906E-1
1.600559515E1,4.408769608E-1,2.816667557E-1,-3.851990700E-1
1.601548229E1,1.043939590E-1,-8.949184418E-2,-2.472010404E-1
1.602536942E1,-2.375402451E-1,-3.742580414E-1,-4.024470970E-2
1.603525656E1,-4.424371719E-1,-6.057558060E-1,3.305017650E-1
1.604514369E1,-4.387249947E-1,-6.314783096E-1,4.758493304E-1
1.605503083E1,-3.662929535E-1,-4.529771805E-1,2.660857141E-1
1.606491796E1,-3.402118683E-1,-3.014407158E-1,1.080493703E-1
1.607480510E1,-4.611654282E-1,-3.261060715E-1,1.501350850E-1
1.608469223E1,-5.994138718E-1,-3.539791107E-1,3.832844794E-1
1.609457937E1,-4.236431122E-1,-4.127788544E-2,5.316787958E-1
1.610446650E1,-3.505296707E-1,2.878026962E-1,4.949234724E-1
1.611435364E1,-2.624230385E-1,5.833692551E-1,4.599176049E-1
1.612424078E1,-3.538751602E-2,8.104400635E-1,4.966008067E-1
1.613412791E1,1.766300201E-1,7.840280533E-1,2.975299954E-1
1.614401505E1,2.642989159E-1,4.707803726E-1,3.554910421E-3
1.615390218E1,1.826601028E-1,4.538440704E-2,-2.121242136E-1
1.616378937E1,1.145029068E-1,-2.803773880E-1,-2.736382484E-1
1.617367650E1,7.703065872E-2,-4.326839447E-1,-1.920483708E-1
1.618356364E1,1.987042427E-1,-4.184703827E-1,-3.900184035E-1
1.619345078E1,5.958080292E-1,-2.822275162E-1,-4.414681792E-1
1.620333791E1,8.872430325E-1,-2.149848938E-1,-3.537130654E-1
1.621322505E1,7.015924454E-1,-3.690919876E-1,-6.769891381E-1
1.622311213E1,-2.489755154E-1,-5.309638977E-1,-4.688376784E-1
1.623299932E1,-1.144650936E0,-4.597225189E-1,-1.271822453E-1
1.624288645E1,-1.096469641E0,-1.058616638E-1,-1.940241456E-1
1.625277359E1,-2.984223366E-1,3.593788147E-1,-5.049263835E-1
1.626266072E1,8.759570122E-1,4.845457077E-1,-1.036218882E0
1.627254786E1,1.705621481E0,2.483911514E-1,-1.485212803E0
1.628243500E1,1.860083222E0,-2.591676712E-1,-1.342120051E0
1.629232213E1,1.671583176E0,-1.010853767E0,-1.042925835E0
1.630220927E1,1.630577445E0,-1.621972084E0,-8.857171535E-1
1.631209640E1,1.616244912E0,-1.859021187E0,-7.401109338E-1
1.632198354E1,1.385122418E0,-1.885501862E0,-5.746712685E-1
1.633187067E1,1.187780142E0,-1.661754131E0,-1.851227283E-1
1.634175781E1,1.040084481E0,-1.312088966E0,-2.048398256E-1
1.635164494E1,8.906874657E-1,-8.813896179E-1,-6.711244583E-1
1.636153208E1,5.711424947E-1,-3.969001770E-1,-4.513989687E-1
1.637141921E1,-2.596707642E-1,2.668952942E-2,1.941566467E-1
1.638130635E1,-8.590016961E-1,2.219676971E-2,1.128797531E-1
1.639119348E1,-5.247904658E-1,-3.890342712E-1,-7.176065445E-2
1.640108062E1,3.180821538E-1,-9.415416718E-1,-2.358391285E-1
1.641096776E1,1.294724822E0,-1.267814636E0,1.283149719E-1
1.642085489E1,1.990479469E0,-1.308653831E0,2.885258198E-1
1.643074203E1,2.166823864E0,-1.179076195E0,1.143634319E-1
1.644062916E1,1.787472248E0,-1.069078445E0,3.505342007E-1
1.645051630E1,1.008104086E0,-1.106820107E0,5.711746216E-1
1.646040343E1,3.829571009E-1,-1.049616814E0,9.126756191E-1
1.647029057E1,-1.971641779E-1,-9.771652222E-1,7.916967869E-1
1.648017770E1,-6.303277016E-1,-7.728700638E-1,5.286531448E-1
1.649006484E1,-6.990184784E-1,-5.326976776E-1,4.099915028E-1
1.649995197E1,-7.270455360E-1,-4.190483093E-1,2.065036297E-1
1.650983911E1,-4.417395592E-1,-3.425197601E-1,-1.590707302E-1
1.651972624E1,-8.613824844E-2,-3.763704300E-1,-3.208233118E-1
1.652961338E1,3.854668140E-1,-3.739032745E-1,-5.643217564E-1
1.653950052E1,6.203013659E-1,-3.947849274E-1,-9.062160254E-1
1.654938765E1,6.367429495E-1,-5.207939148E-1,-8.124780655E-1
1.655927479E1,3.212350607E-1,-5.355081558E-1,-2.712039948E-1
1.656916192E1,-2.897269726E-1,-3.658752441E-1,7.179492712E-1
1.657904906E1,-8.873188496E-1,5.789661407E-2,1.419892669E0
1.658893619E1,-8.856797218E-1,4.414491653E-1,1.769131541E0
1.659882333E1,-3.773201704E-1,7.996225357E-1,2.171567917E0
1.660871046E1,-1.832225323E-1,1.026808739E0,2.438091278E0
1.661859760E1,-4.959379435E-1,9.845228195E-1,3.183303833E0
1.662848473E1,-1.261911035E0,4.433050156E-1,4.041708469E0
1.663837187E1,-1.694535732E0,-3.925247192E-1,4.294194221E0
1.664825900E1,-1.044657111E0,-5.549516678E-1,3.798752785E0
1.665814614E1,2.358186245E-1,2.985477448E-2,2.455872536E0
1.666803333E1,1.465999126E0,9.438114166E-1,5.119763613E-1
1.667792046E1,2.460860729E0,1.677500725E0,-6.454113722E-1
1.668780760E1,2.537478209E0,1.818491936E0,-9.912688136E-1
1.669769468E1,1.614578247E0,1.618438721E0,-6.171731949E-1
1.670758187E1,1.004868150E-1,1.398034096E0,-5.473077297E-1
1.671746900E1,-1.131234527E0,1.367465019E0,-5.578206778E-1
1.672735614E1,-1.578812361E0,1.252981186E0,-7.510117888E-1
1.673724328E1,-1.446727753E0,7.969446182E-1,-1.283373117E0
1.674713041E1,-6.779388785E-1,3.042421341E-1,-1.657278538E0
1.675701755E1,6.356494427E-1,-6.183433533E-2,-2.236905575E0
1.676690468E1,1.772649407E0,7.598876953E-2,-2.091472149E0
1.677679182E1,2.096466780E0,2.816162109E-1,-1.442763448E0
1.678667895E1,1.778124571E0,2.513227463E-1,-8.358676434E-1
1.679656609E1,1.262808800E0,2.113533020E-2,-9.570825100E-2
1.680645322E1,7.895268202E-1,-3.418445587E-1,5.571154356E-1
1.681634036E1,2.372394204E-1,-6.417741776E-1,6.189696789E-1
1.682622750E1,1.618291736E-1,-5.658521652E-1,7.502716780E-1
1.683611463E1,6.485962868E-1,-3.172149658E-1,4.320589304E-1
1.684600176E1,1.102150440E0,-1.086368561E-1,-6.436598301E-2
1.685588890E1,1.040952444E0,-8.387279510E-2,-4.289124608E-1
1.686577604E1,7.892187238E-1,-1.643581390E-1,-5.763251185E-1
1.687566317E1,3.608817458E-1,-3.144836426E-1,-6.282473803E-1
1.688555031E1,-2.268261909E-1,-4.024915695E-1,-7.342008948E-1
1.689543744E1,-6.746594906E-1,-3.347139359E-1,-8.670498133E-1
1.690532458E1,-9.715108871E-1,-2.975702286E-1,-6.720423698E-1
1.691521171E1,-1.090490699E0,-2.360239029E-1,-7.067160010E-1
1.692509885E1,-1.042785406E0,-1.717796326E-1,-4.256588817E-1
1.693498598E1,-1.129425287E0,-1.504726410E-1,-3.227736354E-1
1.694487312E1,-1.304830074E0,-1.052074432E-1,-4.875547886E-1
1.695476026E1,-1.420691967E0,2.855205536E-2,-4.920821786E-1
1.696464739E1,-1.356965303E0,7.890224457E-2,-2.591608763E-1
1.697453453E1,-1.205225468E0,-9.448337555E-2,-6.539521813E-1
1.698442166E1,-7.834144831E-1,-1.544179916E-1,-6.701024771E-1
1.699430885E1,-6.650612950E-1,-1.065101624E-1,-3.080140352E-1
1.700419598E1,-7.941773534E-1,3.208541870E-2,-8.134430647E-2
1.701408312E1,-8.479973078E-1,1.109266281E-1,-1.623177528E-2
1.702397026E1,-7.750155330E-1,5.849742889E-2,-9.762889147E-2
1.703385739E1,-6.561027169E-1,6.855964661E-2,8.046507835E-3
1.704374453E1,-4.135105610E-1,1.362829208E-1,1.593227983E-1
1.705363166E1,-1.649839878E-1,9.206962585E-2,1.311424375E-1
1.706351880E1,-4.487693310E-2,4.846668243E-2,4.400599003E-2
1.707340593E1,1.122485399E-1,1.867799759E-1,7.499098778E-3
1.708329307E1,1.945943832E-1,3.225641251E-1,-2.450863123E-1
1.709318020E1,3.785134554E-1,3.316659927E-1,-3.218747973E-1
1.710306734E1,3.827296495E-1,7.364177704E-2,-5.274779797E-1
1.711295447E1,1.556785107E-1,-2.475757599E-1,-3.798873723E-1
1.712284161E1,-1.637766361E-1,-5.432167053E-1,-1.865606308E-1
1.713272874E1,-3.261409998E-1,-5.432424545E-1,-8.582270145E-2
1.714261588E1,-3.036673069E-1,-3.627967834E-1,-1.286336184E-1
1.715250302E1,-1.845325232E-1,-2.054471970E-1,-5.780410767E-2
1.716239015E1,5.116271973E-2,-1.406354904E-1,-1.009396315E-1
1.717227729E1,3.428502083E-1,-2.510166168E-2,1.479529142E-1
1.718216442E1,5.413755178E-1,2.439498901E-3,-1.243799329E-1
1.719205156E1,6.739548445E-1,-7.467937469E-2,-3.789478540E-2
1.720193869E1,6.079423428E-1,-1.342363358E-1,7.231950760E-3
1.721182588E1,4.205119610E-1,-2.403097153E-1,-7.189714909E-2
1.722171302E1,4.008271694E-1,-3.305435181E-1,7.009750605E-2
1.723160015E1,3.632130623E-1,-3.621015549E-1,2.806995511E-1
1.724148729E1,2.964327335E-1,-3.472251892E-1,5.265501738E-1
1.725137442E1,-1.758718491E-2,-1.951208115E-1,3.432102799E-1
1.726126156E1,-3.204243183E-1,1.105871201E-1,1.508065164E-1
1.727114869E1,-4.529569149E-1,4.092044830E-1,9.582769871E-2
1.728103583E1,-4.584815502E-1,4.851675034E-1,1.168593764E-2
1.729092296E1,-3.516783714E-1,3.717164993E-1,2.061603963E-1
1.730081010E1,-4.402263165E-1,1.382331848E-1,3.900871873E-1
1.731069723E1,-7.150661945E-1,-2.137184143E-2,4.609908760E-1
1.732058437E1,-1.043794036E0,2.456474304E-2,5.595300794E-1
1.733047151E1,-1.264459491E0,9.174728394E-2,4.284299612E-1
1.734035864E1,-1.252236485E0,7.224273682E-2,4.301122427E-1
1.735024578E1,-1.168094397E0,1.167268753E-1,1.666941047E-1
1.736013291E1,-1.186212301E0,1.324701309E-1,5.121737719E-2
1.737002005E1,-1.088499784E0,1.837635040E-1,9.386247396E-2
1.737990718E1,-9.546687603E-1,2.889451981E-1,3.112545013E-1
1.738979432E1,-8.219435215E-1,4.022407532E-1,1.937416196E-1
1.739968145E1,-8.392374516E-1,6.100807190E-1,1.254077554E-1
1.740956864E1,-1.098797798E0,5.197401047E-1,3.282182217E-1
1.741945578E1,-1.480592608E0,3.869104385E-1,4.102191329E-1
1.742934291E1,-1.520050168E0,3.533363342E-1,5.043361783E-1
1.743923005E1,-8.272967339E-1,5.177936554E-1,-3.764989376E-1
1.744911718E1,4.920256138E-1,8.554735184E-1,-1.484666467E0
1.745900432E1,1.595662117E0,9.582271576E-1,-2.341711283E0
1.746889145E1,1.690099716E0,5.270547867E-1,-2.181120396E0
1.747877859E1,1.278518200E0,-1.854467392E-1,-1.896508813E0
1.748866572E1,4.703378677E-1,-7.789974213E-1,-1.157511234E0
1.749855286E1,-3.686411381E-1,-6.757869720E-1,-4.396087229E-1
1.750844000E1,-8.401818275E-1,-2.488708496E-2,2.452164888E-2
1.751832713E1,-4.840106964E-1,6.704521179E-1,1.464059353E-1
1.752821427E1,1.465830803E-1,1.152571678E0,-2.374805510E-1
1.753810140E1,9.172668457E-1,1.658449173E0,-2.281509936E-1
1.754798854E1,1.398465633E0,2.027460098E0,-9.921753407E-2
1.755787567E1,1.391300678E0,1.782679558E0,3.658297360E-1
1.756776281E1,1.016546726E0,1.238250732E0,6.691737771E-1
1.757765000E1,8.218059540E-1,6.744365692E-1,5.323764682E-1
1.758753713E1,9.171118736E-1,1.890201569E-1,3.108296096E-1
1.759742426E1,1.045656681E0,7.004356384E-2,-7.880240679E-3
1.760731140E1,1.012395382E0,-1.219654083E-2,-1.505496204E-1
1.761719854E1,1.072673798E0,1.027202606E-2,-1.078042984E-1
1.762708567E1,1.068768024E0,3.054523468E-2,-8.530855179E-3
1.763697281E1,6.912674904E-1,-9.529685974E-2,2.608199716E-1
1.764685994E1,5.713653564E-2,-3.113794327E-1,4.986416698E-1
1.765674708E1,-5.838446617E-1,-3.798379898E-1,7.920068502E-1
1.766663421E1,-9.748873711E-1,-3.278551102E-1,9.185745716E-1
1.767652135E1,-8.315467834E-1,4.364681244E-2,1.090013027E0
1.768640848E1,-4.835686684E-1,5.482006073E-1,1.087907672E0
1.769629562E1,-2.389292717E-1,9.467239380E-1,8.623202443E-1
1.770618276E1,-1.775836945E-1,1.211721420E0,6.690911055E-1
1.771606989E1,-4.636020660E-1,1.258110046E0,6.425911188E-1
1.772595708E1,-7.523884773E-1,1.099150658E0,6.580644846E-1
1.773584421E1,-9.309601784E-1,9.409828186E-1,5.620554686E-1
1.774573135E1,-9.038639069E-1,9.065752029E-1,4.577899575E-1
1.775561848E1,-8.241677284E-1,8.326911926E-1,3.801511526E-1
1.776550562E1,-6.103520393E-1,7.700996399E-1,3.317939639E-1
1.777539276E1,-5.687232018E-1,7.031974792E-1,3.042633533E-1
1.778527989E1,-6.551012993E-1,6.006946564E-1,2.518954873E-1
1.779516703E1,-6.722822189E-1,4.454393387E-1,3.524899483E-3
1.780505416E1,-5.117859840E-1,3.681039810E-1,-3.130953610E-1
1.781494130E1,-3.457288742E-1,2.367963791E-1,-4.995993078E-1
1.782482843E1,-2.222747803E-1,3.982830048E-2,-6.259005070E-1
1.783471557E1,-3.672933578E-2,-1.647806168E-1,-5.768189430E-1
1.784460270E1,-3.267574310E-2,-4.517102242E-1,-5.778899789E-1
1.785448984E1,-1.494860649E-1,-7.931575775E-1,-3.245543540E-1
1.786437703E1,-2.722115517E-1,-1.017939568E0,-5.192673206E-2
1.787426416E1,-2.313313484E-1,-1.218097210E0,-7.648587227E-3
1.788415130E1,1.637187004E-1,-1.298220158E0,-3.219758272E-1
1.789403843E1,6.447548866E-1,-1.310099125E0,-4.429996312E-1
1.790392557E1,9.122033119E-1,-1.282260418E0,-3.222757876E-1
1.791381270E1,6.910138130E-1,-1.084029198E0,-5.128533244E-1
1.792369984E1,2.858729362E-1,-9.928669930E-1,-5.100665689E-1
1.793358697E1,-1.509571075E-2,-8.756184578E-1,-3.843857348E-1
1.794347411E1,2.766418457E-2,-5.339503288E-1,-2.343537211E-1
1.795336124E1,2.555150986E-1,-1.143522263E-1,-2.056810260E-1
1.796324838E1,3.682956696E-1,8.996868134E-2,-3.027439713E-1
1.797313552E1,3.127479553E-1,6.043815613E-2,-2.308922410E-1
1.798302265E1,1.223573685E-1,-4.670810699E-2,-3.117995858E-1
1.799290979E1,-2.741646767E-1,-1.882123947E-1,-3.819592595E-1
1.800279697E1,-3.655586243E-1,-4.401597977E-1,-2.467361689E-1
1.801268411E1,-1.841545105E-2,-3.561697006E-1,-2.007926106E-1
1.802257124E1,4.206593037E-1,-6.029796600E-2,-4.666435719E-2
1.803245838E1,7.150046825E-1,1.156692505E-1,8.602321148E-2
1.804234552E1,1.031588554E0,1.343793869E-1,1.618614197E-1
1.805223265E1,1.297477722E0,1.576557159E-1,5.519509315E-2
1.806211979E1,1.193979740E0,2.129697800E-1,5.820572376E-2
1.807200692E1,1.013916016E0,7.333087921E-2,1.578602791E-1
1.808189406E1,8.460862637E-1,-1.336593628E-1,1.461265087E-1
1.809178119E1,5.735654831E-1,-3.142900467E-1,2.232048512E-1
1.810166833E1,3.897409439E-1,-4.232358932E-1,2.114496231E-1
1.811155546E1,4.220288992E-1,-4.976625443E-1,2.915543318E-1
1.812144265E1,6.029511690E-1,-5.615453720E-1,2.892273664E-1
1.813132979E1,7.457822561E-1,-6.489992142E-1,3.864002228E-2
1.814121692E1,9.853467941E-1,-7.490196228E-1,-1.591943502E-1
1.815110406E1,1.238654375E0,-7.908382416E-1,-2.507097721E-1
1.816099119E1,1.367210627E0,-8.013248444E-1,-1.785722971E-1
1.817087833E1,1.404926062E0,-6.868715286E-1,-2.532305717E-1
1.818076546E1,1.142294765E0,-6.685485840E-1,-5.196188688E-1
1.819065260E1,6.831558347E-1,-6.978425980E-1,-5.833787918E-1
1.820053973E1,-9.770616889E-3,-7.874011993E-1,-3.698054552E-1
1.821042687E1,-7.507349253E-1,-6.762027740E-1,2.596592903E-2
1.822031401E1,-9.298326373E-1,-5.103769302E-1,3.195803165E-1
1.823020114E1,-2.981773615E-1,-4.828319550E-1,9.838008881E-2
1.824008833E1,5.277155638E-1,-5.894193649E-1,-1.186075211E-1
1.824997546E1,1.394498467E0,-7.557392120E-1,-1.869966984E-1
1.825986260E1,1.879264355E0,-8.856124878E-1,-1.311326027E-1
1.826974973E1,1.811512232E0,-1.005434990E0,6.768226624E-3
1.827963687E1,1.558931231E0,-1.093856812E0,2.285482883E-1
1.828952400E1,1.357714772E0,-1.067159653E0,2.274012566E-1
1.829941114E1,1.125383377E0,-7.871074677E-1,6.595826149E-2
1.830929828E1,7.923185229E-1,-4.868316650E-1,6.962513924E-2
1.831918541E1,3.974790573E-1,-2.843723297E-1,1.776576042E-2
1.832907255E1,9.547233582E-2,-1.470708847E-1,-5.769872665E-2
1.833895968E1,-7.498204708E-2,-1.448078156E-1,-1.079491377E-1
1.834884682E1,-1.088672876E-1,-3.011131287E-1,-3.724783659E-1
1.835873401E1,1.352064610E-1,-5.291833878E-1,-4.660284519E-1
1.836862114E1,1.674745083E-1,-6.877279282E-1,-6.361339092E-1
1.837850828E1,9.504413605E-2,-6.121244431E-1,-4.516268969E-1
1.838839541E1,4.931116104E-2,-4.842233658E-1,-2.322700024E-1
1.839828255E1,4.681253433E-2,-4.353809357E-1,-5.503511429E-2
1.840816968E1,2.931739092E-1,-2.267122269E-1,6.115415096E-1
1.841805682E1,1.936513186E-1,1.386537552E-1,1.078694105E0
1.842794395E1,-9.462606907E-2,3.953304291E-1,1.300729275E0
1.843783109E1,2.924084663E-3,5.952262878E-1,1.452129483E0
1.844771822E1,5.566656590E-1,9.037990570E-1,1.776353836E0
1.845760541E1,7.828508615E-1,1.005359650E0,2.099438190E0
1.846749255E1,9.928655624E-2,4.174776077E-1,2.573611736E0
1.847737968E1,-9.609217644E-1,-3.790493011E-1,3.264139652E0
1.848726682E1,-1.872887254E0,-8.146572113E-1,3.396146297E0
1.849715395E1,-1.999286056E0,-3.900184631E-1,2.838899851E0
1.850704109E1,-9.615639448E-1,8.258609772E-1,2.087901592E0
1.851692822E1,1.539931297E-1,1.771439552E0,7.699252367E-1
1.852681536E1,7.997000217E-1,2.064886093E0,1.048218012E-1
1.853670250E1,8.654497862E-1,1.943575859E0,-1.966794729E-1
1.854658963E1,2.796900272E-1,1.465891838E0,-2.531208992E-1
1.855647677E1,-8.022556305E-1,8.404140472E-1,2.547886372E-1
1.856636390E1,-1.788721085E0,4.471101761E-1,4.908640385E-1
1.857625109E1,-2.255673647E0,3.798465729E-1,3.986366987E-1
1.858613822E1,-2.116329193E0,3.847770691E-1,3.668278456E-1
1.859602536E1,-1.500020027E0,1.833705902E-1,-3.916501999E-3
1.860591250E1,-2.960796952E-1,2.372741699E-3,-2.330465317E-1
1.861579963E1,8.760188818E-1,-4.934120178E-2,-5.044051409E-1
1.862568676E1,1.493803740E0,6.738662720E-3,-5.171754360E-1
1.863557390E1,1.383197546E0,2.103195190E-1,-1.994796991E-1
1.864546104E1,6.002124548E-1,3.858461380E-1,2.830219269E-2
1.865534817E1,-1.351001859E-2,4.159183502E-1,1.486110687E-1
1.866523536E1,-2.502014041E-1,2.980871201E-1,1.322042942E-2
1.867512250E1,-1.670279205E-1,2.256879807E-1,-1.375603676E-2
1.868500963E1,1.305742562E-1,2.225599289E-1,-2.381595373E-1
1.869489677E1,4.450957179E-1,1.908426285E-1,-8.656402826E-1
1.870478390E1,5.468516350E-1,1.642322540E-1,-1.334640741E0
1.871467104E1,6.082748175E-1,1.336221695E-1,-1.352066875E0
1.872455817E1,4.262647033E-1,-1.325016022E-1,-1.166495800E0
1.873444531E1,-9.307134897E-4,-5.430507660E-1,-9.664001465E-1
1.874433250E1,-4.509923756E-1,-8.707027435E-1,-8.987038136E-1
1.875421963E1,-6.610636115E-1,-1.065144539E0,-9.823061228E-1
1.876410676E1,-6.535866857E-1,-1.131699562E0,-8.397169113E-1
1.877399390E1,-5.299394727E-1,-9.324932098E-1,-5.780916214E-1
1.878388104E1,-2.452723533E-1,-5.230436325E-1,-5.270333290E-1
1.879376817E1,-5.847790837E-2,-2.072725296E-1,-4.793598056E-1
1.880365531E1,-1.802104712E-2,-1.811790466E-1,-2.049405575E-1
1.881354244E1,1.856458187E-2,-3.894567490E-1,1.598091125E-1
1.882342958E1,8.937311172E-2,-4.946308136E-1,5.389530659E-1
1.883331671E1,4.024398327E-1,-4.033164978E-1,8.508459330E-1
1.884320385E1,3.989329934E-1,-3.044519424E-1,6.215974092E-1
1.885309104E1,1.717523336E-1,-3.797302246E-1,5.054575205E-1
1.886297817E1,5.477726460E-2,-3.515005112E-1,3.967460394E-1
1.887286531E1,-1.236866117E-1,-1.838665009E-1,2.403833866E-1
1.888275244E1,-2.945540547E-1,-3.972053528E-3,3.258477449E-1
1.889263958E1,-3.548133969E-1,1.926107407E-1,2.847002745E-1
1.890252671E1,-3.744148016E-1,4.056348801E-1,1.879483461E-1
1.891241385E1,-3.287693858E-1,5.083122253E-1,2.239596844E-1
1.892230098E1,-1.568963528E-1,5.246849060E-1,2.311455011E-1
1.893218812E1,-8.663177490E-3,4.550924301E-1,-6.976497173E-2
1.894207531E1,1.485750675E-1,4.026861191E-1,-3.310277462E-1
1.895196244E1,2.599433661E-1,3.028831482E-1,-4.691951275E-1
1.896184958E1,2.997821569E-1,2.033834457E-1,-1.950727701E-1
1.897173671E1,3.885947466E-1,1.686286926E-1,-1.945812702E-1
1.898162385E1,5.345474482E-1,1.002750397E-1,-2.855740190E-1
1.899151098E1,6.200962067E-1,-1.021385193E-1,-6.408172846E-2
1.900139812E1,5.365386009E-1,-2.780914307E-1,-8.243131638E-2
1.901128526E1,3.294020891E-1,-3.792943954E-1,-8.124887943E-2
1.902117239E1,9.177362919E-2,-4.745044708E-1,-3.871113062E-2
1.903105958E1,-4.926061630E-2,-5.488967896E-1,1.202116013E-1
1.904094671E1,-6.299376488E-3,-5.833425522E-1,5.327785611E-1
1.905083385E1,1.251155138E-1,-5.042505264E-1,8.893330097E-1
1.906072098E1,2.939667702E-1,-3.553152084E-1,8.118274212E-1
1.907060812E1,3.444905281E-1,-2.232036591E-1,5.872363448E-1
1.908049526E1,9.141302109E-2,-1.108608246E-1,5.006426573E-1
1.909038239E1,-3.186632395E-1,1.061887741E-1,1.857232451E-1
1.910026953E1,-6.503424644E-1,1.486454010E-1,-9.168404341E-2
1.911015666E1,-1.061574459E0,-7.140827179E-2,2.890223265E-2
1.912004380E1,-1.318237185E0,-1.974992752E-1,1.454823613E-1
1.912993098E1,-1.210185289E0,-9.855365753E-2,4.027105570E-1
1.913981812E1,-1.166914701E0,2.975463867E-3,3.902857304E-1
1.914970526E1,-1.034350276E0,5.239391327E-2,3.825930357E-1
1.915959239E1,-8.541141748E-1,1.422786713E-2,3.441764712E-1
1.916947953E1,-6.621631384E-1,-3.971576691E-2,2.072742581E-1
1.917936666E1,-4.092097282E-1,-5.488586426E-2,9.183877707E-2
1.918925380E1,-1.581218243E-1,2.799510956E-2,-4.507619143E-2
1.919914093E1,4.474639893E-2,1.176385880E-1,-2.316827476E-1
1.920902812E1,1.115598679E-1,2.495346069E-1,-4.515973628E-1
1.921891526E1,-8.768939972E-2,4.811725616E-1,-4.954825640E-1
1.922880239E1,-3.995206356E-1,5.862112045E-1,-4.264085293E-1
1.923868953E1,-7.561645508E-1,4.270286560E-1,-3.733316064E-1
1.924857666E1,-9.111840725E-1,1.857814789E-1,-2.727503479E-1
1.925846380E1,-9.235916138E-1,9.441375732E-4,-2.961718142E-1
1.926835093E1,-8.280971050E-1,-8.267784119E-2,-3.798744380E-1
1.927823807E1,-6.050207615E-1,-3.623962402E-3,-4.246565402E-1
1.928812520E1,-5.183217525E-1,5.402088165E-2,-4.956863523E-1
1.929801239E1,-4.689376354E-1,-2.131557465E-2,-3.929622769E-1
1.930789953E1,-6.069369316E-1,-1.232929230E-1,-4.150439501E-1
1.931778666E1,-6.369383335E-1,-1.485929489E-1,-3.541471958E-1
1.932767380E1,-5.757968426E-1,-9.740257263E-2,-1.426643729E-1
1.933756093E1,-3.455367088E-1,2.465152740E-2,-2.788832486E-1
1.934744807E1,-9.144854546E-2,7.269859314E-2,-3.338440061E-1
1.935733520E1,1.610240936E-1,2.079362869E-1,-5.106924176E-1
1.936722239E1,1.866803169E-1,3.554401398E-1,-7.395346165E-1
1.937710953E1,1.972308159E-1,5.026836395E-1,-9.893469214E-1
1.938699666E1,4.614384174E-1,8.782529831E-1,-1.554243565E0
1.939688380E1,8.454675674E-1,1.203943253E0,-1.703568339E0
1.940677093E1,1.110721350E0,1.236754417E0,-1.512677431E0
1.941665807E1,1.078818798E0,9.483842850E-1,-1.659768105E0
1.942654520E1,8.040351868E-1,5.241899490E-1,-1.476821303E0
1.943643234E1,2.947983742E-1,1.731014252E-1,-9.427113533E-1
1.944631953E1,-2.065277100E-1,7.146263123E-2,-6.051939726E-2
1.945620666E1,-5.081706047E-1,1.447248459E-1,2.546131909E-1
1.946609380E1,-3.101742268E-1,5.328893661E-1,8.385691047E-2
1.947598093E1,1.446523666E-1,9.655914307E-1,4.451061785E-1
1.948586807E1,4.105792046E-1,1.198199272E0,8.405396938E-1
1.949575520E1,1.807613373E-1,1.342874527E0,1.122595787E0
1.950564234E1,-3.748908043E-1,1.351249695E0,1.657511830E0
1.951552953E1,-9.013314247E-1,1.302164078E0,2.163684368E0
1.952541666E1,-1.149011612E0,1.322878838E0,2.259990931E0
1.953530380E1,-1.037440777E0,1.275645256E0,2.043519497E0
1.954519093E1,-5.386137962E-1,1.298526764E0,1.801329136E0
1.955507807E1,-7.709312439E-2,1.398459435E0,1.453770757E0
1.956496520E1,8.363962173E-2,1.433211327E0,8.266180754E-1
1.957485234E1,1.904201508E-1,1.366956711E0,3.164607286E-1
1.958473947E1,2.720689774E-1,1.225234985E0,-1.864605695E-1
1.959462666E1,2.212247849E-1,9.608364105E-1,-8.421218395E-1
1.960451380E1,2.796435356E-1,6.745843887E-1,-1.195415258E0
1.961440093E1,3.455443382E-1,4.330883026E-1,-1.562127471E0
1.962428807E1,5.106964111E-1,1.821537018E-1,-1.598045349E0
1.963417520E1,5.831704140E-1,-8.015632629E-2,-1.566673040E0
1.964406234E1,4.123535156E-1,-4.252452850E-1,-1.386938810E0
1.965394947E1,2.812123299E-1,-6.908745766E-1,-9.075682163E-1
1.966383666E1,1.785278320E-3,-7.535328865E-1,-9.477112293E-1
1.967372380E1,-1.226787567E-1,-6.673431396E-1,-6.838845015E-1
1.968361093E1,-2.935504913E-1,-6.487121582E-1,-4.654157162E-1
1.969349807E1,-4.906063080E-1,-6.717386246E-1,-4.946886301E-1
1.970338520E1,-5.220451355E-1,-5.981812477E-1,-4.399714470E-1
1.971327234E1,-5.846371651E-1,-4.758224487E-1,-5.104705095E-1
1.972315947E1,-4.906921387E-1,-2.278842926E-1,-4.983355999E-1
1.973304666E1,-3.298439980E-1,-1.217412949E-1,-2.909165323E-1
1.974293380E1,-1.076540947E-1,-1.519260406E-1,-8.657374978E-2
1.975282093E1,-2.330827713E-2,-4.298410416E-1,2.690426111E-1
1.976270807E1,8.143424988E-2,-8.546471596E-1,5.723651052E-1
1.977259520E1,1.526761055E-1,-1.221121788E0,8.155781627E-1
1.978248234E1,2.042531967E-1,-1.437257767E0,1.015894175E0
1.979236947E1,3.448405266E-1,-1.510201931E0,9.997636080E-1
1.980225666E1,5.923805237E-1,-1.380383968E0,7.599291801E-1
1.981214380E1,8.078413010E-1,-1.087723255E0,5.972023606E-1
1.982203093E1,8.220281601E-1,-8.214044571E-1,5.691671371E-1
1.983191807E1,8.534135818E-1,-4.406623840E-1,4.663387239E-1
